aX,aY,aZ,gX,gY,gZ
-0.884,-0.809,2.372,179.016,-63.965,45.715
-0.790,-1.130,2.560,173.035,-84.717,39.612
-0.510,-1.497,2.563,140.564,-98.816,26.062
-0.289,-1.554,2.530,82.458,-99.976,-0.977
-0.268,-1.255,2.530,23.560,-91.370,-33.508
-0.194,-0.799,2.608,-14.404,-77.698,-58.350
-0.125,-0.450,2.702,-27.527,-67.383,-66.467
-0.065,-0.320,2.722,-19.897,-64.941,-59.509
-0.150,-0.342,2.604,-15.015,-68.542,-46.021
-0.347,-0.347,2.419,-16.846,-70.984,-31.677
-0.434,-0.357,2.222,-20.203,-64.758,-18.555
-0.415,-0.468,1.949,-24.414,-45.654,-8.850
-0.318,-0.305,1.877,-37.781,-11.658,-1.343
-0.274,-0.227,1.858,-47.852,35.278,7.690
-0.193,-0.148,1.967,-54.138,82.764,18.921
-0.185,-0.295,2.063,-59.021,110.413,31.311
-0.265,-0.447,2.113,-66.833,106.445,35.461
-0.347,-0.497,2.047,-74.829,71.594,28.076
-0.379,-0.463,1.948,-72.021,21.057,13.428
-0.438,-0.376,1.670,-68.420,-26.978,0.366
-0.464,-0.323,1.509,-70.313,-55.237,-5.127
-0.434,-0.322,1.449,-78.613,-60.730,-7.446
-0.419,-0.267,1.484,-98.206,-47.729,-7.690
-0.403,-0.198,1.644,-122.009,-24.109,-6.104
-0.307,-0.068,1.811,-140.015,-0.122,-5.310
-0.266,0.132,1.868,-140.137,17.029,-6.775
-0.276,0.245,1.871,-118.591,27.161,-7.751
-0.230,0.235,1.938,-80.811,32.043,-8.118
-0.164,0.138,1.975,-40.344,34.119,-9.460
-0.158,0.090,2.021,-9.033,35.217,-12.451
-0.175,0.068,2.052,11.169,34.302,-15.259
-0.196,0.057,2.064,23.437,30.701,-16.357
-0.175,0.040,2.070,31.067,23.743,-16.174
-0.204,0.014,1.968,38.086,12.695,-16.357
-0.262,-0.037,1.804,47.058,1.648,-16.846
-0.297,-0.134,1.659,57.678,-6.531,-18.616
-0.328,-0.201,1.526,69.641,-12.878,-23.437
-0.326,-0.247,1.434,77.087,-17.273,-28.320
-0.307,-0.286,1.368,72.632,-19.287,-30.212
-0.283,-0.287,1.272,56.519,-18.677,-29.846
-0.266,-0.228,1.177,32.593,-14.221,-27.710
-0.240,-0.183,1.124,9.338,-5.005,-23.865
-0.203,-0.155,1.146,-7.690,7.385,-18.860
-0.172,-0.111,1.199,-17.944,18.982,-14.709
-0.166,-0.080,1.233,-23.682,24.841,-10.864
-0.159,-0.082,1.245,-28.381,24.292,-5.737
-0.158,-0.085,1.218,-31.860,19.592,-2.197
-0.164,-0.052,1.181,-34.973,13.672,0.122
-0.179,-0.030,1.119,-40.161,8.728,3.540
-0.188,0.032,1.058,-43.945,6.531,7.080
-0.181,0.044,1.027,-42.297,7.385,9.216
-0.167,0.050,1.027,-35.950,9.705,9.644
-0.140,0.029,1.035,-26.062,12.451,9.521
-0.116,0.014,1.053,-16.357,14.587,8.057
-0.110,-0.010,1.056,-9.155,15.259,5.615
-0.119,-0.045,1.026,-4.272,14.832,2.808
-0.132,-0.057,0.985,-3.113,14.954,0.183
-0.151,-0.050,0.967,-3.784,16.113,-2.441
-0.148,-0.047,0.967,-5.310,17.700,-3.784
-0.133,0.089,1.001,-7.385,19.348,-4.028
-0.122,0.112,1.001,-7.935,20.508,-1.465
-0.133,0.110,0.999,-4.089,20.935,2.136
-0.116,0.080,0.983,3.967,21.179,2.441
-0.124,0.108,0.983,14.099,21.118,-0.671
-0.153,0.103,0.975,24.292,21.057,-2.991
-0.190,0.069,0.956,30.701,22.583,-3.235
-0.244,0.101,0.911,32.654,25.818,-3.052
-0.191,-0.036,0.939,33.875,29.846,-1.709
-0.135,-0.085,0.969,31.982,32.349,-1.160
-0.109,-0.118,0.979,26.855,31.677,-2.502
-0.102,-0.093,0.957,21.606,28.015,-3.784
-0.107,-0.095,0.921,15.137,22.888,-4.395
-0.107,-0.096,0.868,7.324,18.860,-3.784
-0.041,-0.062,0.838,-0.427,16.479,-3.113
-0.023,-0.018,0.819,-4.028,15.991,-1.892
-0.036,-0.002,0.845,-4.272,16.113,0.000
-0.046,0.011,0.880,-3.662,16.663,0.854
-0.053,0.007,0.928,-2.625,18.188,1.526
-0.056,-0.014,0.961,-2.747,20.203,1.526
-0.068,-0.036,1.003,-4.700,21.240,0.732
-0.079,-0.036,1.043,-7.141,20.813,-1.343
-0.089,-0.033,1.052,-7.324,19.470,-3.845
-0.099,-0.022,1.031,-5.188,18.250,-7.019
-0.072,-0.021,1.000,-1.953,17.456,-10.437
-0.081,0.010,0.992,1.709,17.029,-14.709
-0.086,0.034,0.984,10.071,16.968,-18.555
-0.080,0.034,0.971,19.653,17.273,-19.836
-0.082,0.024,0.988,26.123,17.029,-18.250
-0.075,-0.001,1.008,32.776,15.503,-16.235
-0.072,-0.005,1.050,39.734,12.634,-15.686
-0.069,-0.003,1.085,47.729,8.667,-16.357
-0.061,-0.028,1.099,55.725,4.700,-17.090
-0.059,-0.069,1.095,61.829,1.099,-17.822
-0.057,-0.093,1.068,65.979,-2.441,-18.738
-0.057,-0.130,1.035,65.430,-5.188,-19.409
-0.047,-0.174,1.001,60.425,-7.568,-20.386
-0.057,-0.186,0.984,53.162,-9.644,-20.996
-0.061,-0.193,0.941,43.579,-11.353,-21.301
-0.064,-0.185,0.906,31.982,-12.634,-21.484
-0.083,-0.198,0.913,18.982,-13.977,-21.240
-0.098,-0.191,0.943,3.479,-15.320,-20.447
-0.083,-0.177,0.961,-9.705,-16.113,-18.921
-0.077,-0.137,0.971,-20.569,-16.541,-16.663
-0.088,-0.073,0.969,-28.809,-16.174,-13.123
-0.087,-0.054,0.956,-34.180,-14.587,-7.263
-0.059,-0.049,0.940,-38.330,-11.658,-1.404
-0.043,-0.054,0.917,-41.199,-7.996,2.136
-0.054,-0.062,0.897,-39.673,-4.211,2.319
-0.062,-0.064,0.905,-35.706,-0.732,0.122
-0.066,-0.053,0.906,-35.706,3.113,-1.770
-0.070,-0.056,0.896,-37.231,7.141,-2.014
-0.072,-0.059,0.887,-38.330,11.108,-1.709
-0.071,-0.051,0.882,-39.612,14.648,-1.770
-0.066,-0.038,0.897,-40.710,16.602,-1.892
-0.061,-0.020,0.953,-40.283,17.029,-1.709
-0.064,-0.006,1.012,-37.170,15.686,-1.892
-0.070,0.000,1.054,-33.020,12.268,-2.075
-0.077,0.016,1.068,-28.809,7.690,-2.380
-0.089,0.026,1.061,-22.522,4.028,-2.502

0.011,-0.458,1.951,-6.104,-64.941,-1.343
-0.001,-0.363,1.885,-28.687,-65.247,-8.301
-0.108,-0.197,1.901,-37.415,-68.909,-15.076
-0.121,0.052,1.939,-26.978,-68.359,-19.348
-0.116,0.232,1.954,-4.883,-60.669,-18.311
-0.166,0.228,2.124,28.687,-50.049,-14.160
-0.069,0.217,2.299,53.284,-44.800,-9.155
0.053,0.191,2.262,53.406,-50.110,-2.258
0.076,0.210,2.096,46.265,-60.120,4.333
0.076,0.146,1.883,44.861,-67.932,10.376
0.100,0.034,1.723,46.875,-67.993,16.418
0.044,-0.140,1.693,44.067,-57.983,19.104
-0.157,-0.334,1.827,27.893,-41.870,16.174
-0.375,-0.452,2.037,-3.479,-29.358,13.367
-0.477,-0.491,2.234,-39.734,-29.053,14.099
-0.540,-0.310,2.271,-70.862,-41.138,12.024
-0.615,-0.060,2.170,-81.604,-54.504,9.460
-0.586,0.094,2.051,-70.007,-57.312,12.451
-0.469,0.173,2.026,-41.809,-46.692,19.043
-0.344,0.089,2.193,2.075,-31.006,22.766
-0.273,-0.021,2.252,45.349,-22.583,20.081
-0.335,-0.092,2.121,80.505,-24.292,12.451
-0.416,-0.129,1.972,106.018,-29.236,3.601
-0.445,-0.237,1.913,112.854,-29.358,4.272
-0.447,-0.342,2.033,99.060,-21.423,10.254
-0.271,-0.376,2.120,68.848,-9.033,15.625
-0.038,-0.315,2.089,31.433,4.944,18.127
0.091,-0.238,1.993,0.732,19.287,15.869
0.070,-0.140,1.807,-10.376,33.386,7.263
-0.067,-0.071,1.616,-0.305,45.898,-2.869
-0.240,-0.083,1.495,19.043,54.749,-10.376
-0.372,-0.196,1.443,37.903,57.800,-13.855
-0.400,-0.366,1.492,45.898,54.138,-14.526
-0.301,-0.514,1.613,38.513,44.006,-15.625
-0.187,-0.539,1.675,10.681,28.625,-15.686
-0.172,-0.484,1.665,-27.832,13.855,-15.076
-0.187,-0.346,1.634,-58.350,3.906,-15.320
-0.184,-0.159,1.600,-71.899,-0.854,-17.395
-0.204,0.001,1.544,-68.176,-1.831,-19.653
-0.255,0.083,1.525,-56.213,0.977,-19.104
-0.270,0.123,1.527,-44.495,4.578,-15.442
-0.277,0.123,1.518,-35.034,6.165,-9.888
-0.287,0.083,1.487,-30.640,3.906,-4.578
-0.298,0.017,1.411,-32.898,-0.061,-0.732
-0.304,-0.021,1.278,-37.048,-2.686,0.427
-0.284,-0.084,1.196,-40.649,-3.174,-2.869
-0.330,-0.088,1.304,-47.974,-2.808,-9.583
-0.430,-0.050,1.440,-50.720,-4.883,-16.663
-0.483,0.004,1.496,-45.715,-12.024,-18.860
-0.472,0.061,1.494,-35.339,-21.973,-14.832
-0.386,0.093,1.383,-23.865,-30.090,-6.348
-0.248,0.072,1.323,-14.771,-32.349,0.488
-0.161,0.097,1.324,-9.888,-30.762,1.221
-0.126,0.145,1.310,-7.751,-27.344,-1.160
-0.145,0.145,1.235,-4.578,-22.217,-1.465
-0.165,0.113,1.172,-0.610,-14.465,-0.793
-0.165,0.081,1.152,4.089,-5.371,-0.061
-0.167,0.029,1.175,8.301,3.418,1.038
-0.158,-0.016,1.215,6.775,10.864,1.587
-0.151,-0.060,1.292,3.418,15.564,0.549
-0.173,-0.085,1.337,-1.343,15.137,-0.549
-0.210,-0.068,1.344,-6.958,11.169,-0.549
-0.231,-0.036,1.309,-11.169,5.127,1.465
-0.219,-0.010,1.235,-13.367,-1.160,4.944
-0.208,0.021,1.164,-12.146,-6.287,6.165
-0.204,0.044,1.121,-8.545,-9.705,5.615
-0.208,0.047,1.053,-2.808,-11.719,5.310
-0.206,0.031,0.994,4.028,-12.085,5.371
-0.207,-0.003,0.957,10.254,-10.986,4.883
-0.250,-0.034,0.939,14.160,-9.277,2.991
-0.212,-0.007,0.864,14.832,-5.920,-1.099
-0.169,0.060,0.870,18.555,-0.244,-5.798
-0.176,0.097,0.960,25.085,5.981,-7.629
-0.195,0.057,0.949,32.227,9.399,-7.324
-0.159,0.015,0.947,38.086,10.376,-8.484
-0.116,0.004,0.937,41.199,10.681,-9.033
-0.109,-0.011,0.896,41.138,10.437,-7.996
-0.128,-0.010,0.863,40.588,10.193,-6.348
-0.140,-0.032,0.838,40.405,9.705,-5.310
-0.125,-0.048,0.820,37.354,10.193,-4.944
-0.096,-0.079,0.812,32.471,11.414,-4.272
-0.089,-0.116,0.792,26.306,12.207,-4.272
-0.113,-0.141,0.793,19.592,12.451,-6.348
-0.155,-0.120,0.825,15.686,12.146,-10.010
-0.185,-0.064,0.867,15.869,11.414,-13.611
-0.189,-0.021,0.871,20.752,10.559,-15.137
-0.186,-0.023,0.886,28.931,9.033,-14.893
-0.176,-0.042,0.925,39.429,6.958,-14.893
-0.133,-0.062,0.949,49.377,3.967,-15.686
-0.067,-0.077,0.938,52.734,0.549,-16.418
-0.016,-0.057,0.904,48.889,-2.380,-16.724
0.006,-0.075,0.862,45.959,-3.174,-18.250
-0.006,-0.125,0.828,48.401,-1.343,-21.606
-0.042,-0.183,0.826,54.382,3.296,-27.222
-0.076,-0.204,0.833,59.326,8.850,-33.325
-0.107,-0.192,0.872,63.293,14.221,-38.025
-0.114,-0.202,0.940,66.895,18.738,-40.283
-0.112,-0.242,1.003,68.848,20.935,-40.588
-0.136,-0.296,1.026,63.354,20.874,-40.466
-0.131,-0.263,1.028,53.528,21.545,-42.664
-0.149,-0.195,1.100,49.805,20.996,-43.701
-0.198,-0.165,1.143,40.588,17.334,-39.856
-0.233,-0.181,1.150,28.687,12.878,-33.264
-0.223,-0.209,1.123,14.038,9.094,-26.062
-0.189,-0.204,1.068,-5.920,5.920,-18.921
-0.152,-0.177,1.035,-26.306,3.723,-12.512
-0.120,-0.136,0.987,-44.006,2.869,-6.592
-0.099,-0.118,0.965,-59.998,3.113,-1.526
-0.083,-0.116,0.975,-72.266,4.578,1.892
-0.083,-0.116,0.975,-80.078,6.470,3.052
-0.115,-0.110,0.966,-85.266,8.789,2.380
-0.176,-0.117,0.957,-90.027,11.230,1.282
-0.166,-0.130,0.930,-96.680,13.916,0.000
-0.149,-0.090,0.939,-102.234,18.188,-2.686
-0.143,-0.048,0.924,-104.431,22.644,-6.287
-0.137,-0.007,0.899,-110.596,26.733,-9.216
-0.134,0.013,0.883,-123.291,30.090,-10.132
-0.135,0.047,0.887,-136.780,32.349,-9.583
-0.131,0.053,0.990,-148.987,33.936,-8.057

1.364,0.129,-2.407,-164.246,181.519,1.282
1.563,0.044,-1.720,-194.092,209.717,6.042
1.275,0.140,-1.124,-215.576,174.438,7.874
1.048,0.320,-0.608,-181.641,82.703,7.629
0.680,0.293,-0.152,-81.909,-31.677,14.343
-0.100,0.099,-0.010,36.072,-135.193,21.179
-0.736,-0.061,0.133,132.751,-198.364,18.311
-1.172,-0.276,0.581,180.115,-209.473,16.174
-1.413,-0.332,1.146,195.923,-185.791,10.620
-1.236,-0.242,1.634,193.542,-149.719,7.935
-0.966,-0.278,1.808,177.246,-111.206,19.287
-0.721,-0.313,1.736,145.447,-74.158,33.508
-0.291,-0.185,1.830,103.577,-41.260,40.649
0.005,-0.022,1.982,67.871,-21.301,44.067
0.083,-0.025,2.063,42.297,-16.418,43.701
0.004,0.004,1.931,13.306,-21.973,38.513
-0.112,-0.059,1.723,-10.071,-28.748,31.555
-0.166,-0.005,1.601,-27.527,-28.015,24.170
-0.164,0.158,1.561,-32.104,-19.653,18.860
-0.161,0.286,1.596,-15.747,-7.629,16.785
-0.148,0.400,1.537,13.855,0.671,18.311
-0.129,0.286,1.503,43.030,2.319,20.813
-0.161,0.137,1.273,56.091,-4.028,20.020
-0.191,0.123,1.082,43.823,-5.249,17.395
-0.106,0.074,1.158,26.123,2.136,15.625
-0.041,-0.050,1.269,15.076,2.991,12.085
-0.059,-0.059,1.196,-2.441,-3.479,6.042
-0.086,-0.055,1.114,-21.606,-4.272,1.892
-0.098,0.000,1.133,-37.720,1.343,0.183
-0.109,0.051,1.202,-47.424,7.019,0.427
-0.115,0.085,1.205,-49.927,8.667,1.648
-0.098,0.102,1.139,-46.021,7.263,2.380
-0.040,0.132,1.043,-36.926,5.066,3.052
-0.010,0.147,0.999,-19.958,3.479,3.967
0.002,0.127,0.996,2.686,1.831,4.150
-0.037,0.049,0.988,28.931,-3.296,2.625
-0.109,0.004,0.909,51.758,-10.559,-0.793
-0.147,-0.044,0.864,63.538,-16.296,-4.944
-0.205,-0.088,0.922,62.561,-20.935,-10.071
-0.246,-0.078,1.003,54.199,-24.963,-15.015
-0.255,-0.046,1.063,46.448,-26.855,-17.883
-0.264,-0.025,1.080,39.307,-25.391,-19.043
-0.253,0.008,1.052,31.677,-21.667,-18.250
-0.218,0.053,1.014,24.109,-14.404,-15.442
-0.192,0.056,1.013,17.029,-5.920,-12.512
-0.169,0.001,1.022,12.756,0.061,-11.536
-0.134,-0.006,1.035,11.108,2.319,-12.390
-0.103,-0.001,1.058,8.911,2.441,-12.573
-0.082,-0.001,1.052,7.507,-0.244,-11.963
-0.084,0.003,1.048,2.991,-3.967,-10.864
-0.058,0.011,1.081,-3.723,-7.080,-7.629
-0.029,0.007,1.105,-4.700,-9.033,-3.784
-0.034,0.013,1.054,-2.808,-10.559,-1.709
-0.051,0.006,1.002,-2.380,-9.766,0.305
-0.049,-0.022,1.012,-2.197,-5.676,1.709
-0.065,-0.025,1.011,-2.686,-2.075,0.854
-0.072,-0.006,1.029,-3.662,0.854,-1.099
-0.084,0.007,1.067,-4.150,1.465,-2.747
-0.104,0.028,1.073,-3.540,-1.465,-3.906
-0.105,0.062,1.039,-2.869,-5.249,-4.456
-0.094,0.081,0.992,-1.526,-7.446,-4.028
-0.083,0.067,0.934,1.343,-7.568,-3.357
-0.083,0.050,0.852,3.906,-6.226,-2.869
-0.089,0.038,0.810,3.418,-3.723,-2.930
-0.073,0.022,0.816,2.380,-1.343,-3.479
-0.073,0.009,0.836,2.258,1.038,-5.066
0.038,0.140,0.930,2.014,2.808,-6.897
-0.099,0.016,0.886,2.441,1.526,-2.563
-0.141,0.037,0.881,2.625,-0.610,-3.601
-0.078,0.042,0.920,-2.869,-2.808,-5.676
-0.044,0.072,0.980,-14.099,-4.150,-4.822
-0.091,0.052,0.976,-18.311,-6.042,-1.831
-0.130,0.034,0.922,-12.817,-7.080,-0.610
-0.136,0.036,0.888,-8.484,-5.310,-0.977
-0.138,0.037,0.906,-8.728,-1.282,-0.427
-0.138,0.019,0.915,-8.911,2.930,0.366
-0.129,-0.001,0.877,-8.179,6.042,0.305
-0.117,-0.005,0.878,-12.329,10.437,-0.427
-0.098,-0.018,0.955,-21.729,16.235,-0.427
-0.085,-0.024,1.052,-33.447,18.555,-0.732
-0.077,-0.042,1.079,-42.297,14.832,-2.319
-0.082,-0.008,0.995,-48.462,8.362,-4.211
-0.067,0.036,0.926,-55.115,6.409,-4.639
-0.048,0.065,0.904,-55.847,9.827,-3.662
-0.049,0.102,0.888,-49.561,13.367,-2.014
-0.031,0.099,0.936,-39.368,15.137,1.221
-0.015,0.082,1.038,-32.227,14.709,4.822
-0.001,0.074,1.083,-28.992,10.803,7.996
-0.028,0.042,1.056,-20.508,3.418,9.277
0.014,0.079,0.977,-5.737,-3.601,7.446
0.033,0.040,0.954,7.019,-7.935,6.592
-0.043,-0.031,0.981,16.968,-10.132,7.996
-0.122,-0.116,1.031,22.949,-11.108,7.446
-0.118,-0.186,1.152,18.311,-10.559,4.272
-0.123,-0.181,1.250,8.667,-10.376,0.488
-0.116,-0.094,1.270,2.441,-9.949,-2.319
-0.101,-0.015,1.320,3.479,-8.789,-2.502
0.004,0.039,1.420,12.207,-6.714,0.000
-0.038,-0.008,1.572,22.400,-4.333,5.188
-0.253,-0.079,1.675,24.475,-2.747,9.827
-0.389,-0.229,1.870,15.747,0.732,9.766
-0.440,-0.257,2.047,-5.554,2.258,2.930
-0.295,-0.124,2.150,-28.870,-1.160,-5.493
-0.214,0.039,2.223,-47.302,-8.545,-7.812
-0.196,0.145,2.182,-62.744,-17.578,-2.869
-0.151,0.199,2.001,-69.641,-22.949,2.136
-0.099,0.255,1.846,-66.833,-21.301,4.761
-0.041,0.287,1.771,-60.059,-14.709,5.981
0.003,0.279,1.699,-48.340,-9.827,5.737
0.004,0.285,1.586,-30.334,-9.277,2.930
-0.024,0.302,1.451,-9.766,-12.390,0.183
-0.034,0.277,1.307,10.132,-16.418,0.366
-0.045,0.239,1.172,28.198,-18.127,1.770
-0.052,0.202,1.091,44.434,-16.724,2.747
-0.052,0.164,1.039,58.044,-14.099,3.235
-0.057,0.137,0.964,70.129,-11.597,2.869
-0.089,0.106,0.982,81.238,-7.629,3.418
-0.087,0.143,0.975,87.952,-4.456,3.113
-0.065,0.139,1.017,98.450,-2.991,3.296

1.471,0.615,-0.708,-29.968,139.038,-2.563
1.252,0.630,-0.521,12.207,109.192,14.587
0.821,0.491,-0.436,35.156,57.922,21.423
0.420,0.331,-0.111,24.719,6.653,12.085
-0.171,0.215,0.150,-13.977,-34.607,3.113
-0.837,-0.126,0.247,-37.598,-61.157,4.272
-1.130,-0.458,0.377,-29.907,-68.909,4.211
-0.952,-0.557,0.507,-33.630,-64.636,6.470
-0.421,-0.277,0.760,-42.664,-54.321,7.141
-0.138,0.006,0.912,-33.508,-44.495,16.418
-0.068,0.010,0.885,-5.676,-36.194,30.151
-0.043,-0.027,0.928,24.353,-30.273,35.217
-0.000,0.037,1.106,31.677,-31.250,31.860
0.078,0.290,1.073,21.545,-37.720,26.978
0.089,0.368,1.013,21.973,-38.696,29.297
0.059,0.176,1.129,25.024,-34.058,37.598
0.010,-0.046,1.262,23.376,-33.325,41.504
-0.112,-0.292,1.363,26.917,-36.133,36.499
-0.186,-0.340,1.529,28.870,-39.063,22.827
-0.362,-0.469,1.562,17.395,-41.687,9.338
-0.354,-0.369,1.704,5.554,-37.659,-10.559
-0.267,-0.125,1.752,6.226,-27.527,-28.320
-0.224,0.040,1.667,14.709,-12.939,-32.654
-0.186,0.140,1.623,22.156,4.639,-29.236
-0.129,0.200,1.573,27.161,20.752,-23.315
-0.064,0.257,1.475,33.813,31.067,-16.602
-0.022,0.255,1.378,38.696,36.377,-9.399
-0.007,0.188,1.270,42.847,38.269,-3.174
0.002,0.116,1.141,44.861,39.063,1.038
0.048,0.056,1.130,39.856,38.330,3.906
0.083,0.055,1.111,27.039,30.762,6.592
0.090,0.020,1.046,8.972,16.968,10.132
0.080,-0.043,1.010,-11.902,2.625,13.000
0.053,-0.097,0.995,-30.334,-7.935,12.146
0.002,-0.093,0.937,-44.617,-14.893,8.606
-0.069,-0.111,0.918,-50.537,-15.869,5.493
-0.119,-0.089,0.947,-52.490,-12.512,1.892
-0.126,-0.007,0.958,-51.514,-8.423,-1.404
-0.102,0.112,0.964,-43.884,-4.211,-2.197
-0.062,0.164,0.992,-27.161,0.977,-0.427
-0.044,0.172,1.016,-5.554,3.845,2.563
-0.039,0.126,1.002,11.963,2.319,5.005
-0.067,0.024,0.985,19.470,-1.099,5.371
-0.089,-0.019,1.023,15.991,-4.211,3.479
-0.084,0.003,1.043,11.597,-8.606,0.122
-0.078,0.010,1.047,9.583,-12.390,-1.465
-0.093,0.004,1.015,10.132,-12.695,-1.709
-0.094,0.016,1.015,13.062,-10.010,-1.160
-0.069,0.035,1.049,16.235,-6.775,0.122
-0.059,0.048,1.053,15.869,-5.493,2.319
-0.063,0.024,1.062,14.282,-5.005,5.066
-0.074,0.004,1.084,12.512,-4.395,6.165
-0.086,0.012,1.095,10.864,-3.723,5.859
-0.090,0.016,1.091,9.827,-2.808,5.920
-0.082,0.021,1.106,10.193,-1.038,6.042
-0.068,-0.010,1.135,8.911,-0.977,6.531
-0.065,-0.038,1.152,3.174,-3.357,6.592
-0.073,-0.062,1.158,-1.831,-7.202,6.470
-0.087,-0.044,1.138,-0.916,-11.536,4.761
-0.085,-0.024,1.120,4.211,-15.137,2.197
-0.090,-0.018,1.078,8.179,-16.663,1.465
-0.119,-0.016,1.051,7.751,-14.038,1.038
-0.135,-0.010,1.038,4.639,-7.324,1.282
-0.116,0.002,1.036,1.587,0.183,2.380
-0.085,0.001,1.042,-0.732,5.920,3.784
-0.073,-0.007,1.052,-2.747,9.766,4.761
-0.074,-0.014,1.050,-2.869,12.146,5.188
-0.007,0.065,1.067,0.061,12.329,5.676
-0.057,-0.008,1.018,5.249,9.705,9.949
-0.087,-0.105,1.003,8.911,7.324,9.583
-0.127,-0.069,0.995,11.414,6.348,2.625
-0.104,-0.028,0.993,13.245,7.202,-2.075
-0.085,0.001,0.997,14.160,9.216,-2.686
-0.081,0.000,0.998,12.817,10.559,-1.221
-0.089,0.012,1.003,10.254,10.193,0.183
-0.074,0.018,1.024,9.521,7.568,0.671
-0.051,0.009,1.045,9.521,2.930,1.221
0.019,0.030,1.058,7.996,-1.892,2.441
-0.073,-0.039,1.031,6.165,-5.493,6.958
-0.125,-0.140,1.010,2.136,-6.836,8.667
-0.109,-0.112,1.035,-0.183,-5.249,4.089
-0.056,-0.042,1.079,1.160,-4.150,-0.366
-0.041,-0.021,1.073,2.808,-6.531,-0.610
-0.056,-0.033,1.026,5.005,-10.193,0.305
-0.073,-0.042,1.001,6.775,-12.085,0.427
-0.081,-0.042,0.999,5.310,-11.780,0.183
-0.077,-0.036,1.009,2.502,-11.169,0.305
-0.074,-0.045,1.007,3.479,-10.986,0.732
-0.073,-0.048,0.995,7.080,-10.620,0.854
-0.059,-0.032,0.986,11.047,-10.010,0.488
-0.024,0.031,0.972,13.367,-9.094,2.197
-0.064,-0.006,0.955,15.442,-6.470,7.874
-0.103,-0.063,0.960,14.587,-2.197,11.658
-0.104,-0.046,1.002,12.573,2.136,11.230
-0.088,-0.063,1.028,11.780,4.517,10.742
-0.085,-0.059,1.021,8.667,5.554,9.155
-0.101,-0.081,1.011,4.211,6.592,7.385
-0.116,-0.092,1.005,-1.465,7.507,5.554
-0.102,-0.093,1.020,-8.057,7.751,3.662
-0.075,-0.099,1.046,-14.893,7.385,2.319
-0.059,-0.084,1.089,-22.217,8.057,1.099
-0.104,-0.077,1.121,-27.771,8.179,1.343
-0.123,-0.092,1.123,-31.555,8.179,1.709
-0.122,-0.089,1.122,-30.273,8.911,-0.427
-0.111,-0.038,1.146,-26.184,10.498,-3.235
-0.110,0.011,1.190,-20.752,11.963,-4.211
-0.118,0.034,1.208,-11.963,12.024,-4.456
-0.132,0.044,1.179,-2.747,11.047,-4.150
-0.124,0.047,1.160,7.202,10.498,-4.150
-0.107,0.039,1.160,14.587,10.376,-4.028
-0.090,0.034,1.146,17.578,10.132,-3.662
-0.076,0.016,1.125,20.203,10.132,-3.296
-0.062,-0.017,1.092,23.315,10.437,-3.540
-0.054,-0.043,1.071,24.048,11.047,-4.333
-0.064,-0.042,1.082,21.790,12.573,-4.883
-0.069,-0.030,1.123,19.165,13.977,-4.089
-0.043,-0.034,1.165,18.982,13.306,-2.991
-0.028,-0.035,1.197,20.325,10.437,-2.380
-0.018,-0.032,1.216,21.179,6.836,-2.502

1.418,0.496,-1.172,-6.348,132.324,2.991
1.245,0.354,-0.565,29.663,102.600,19.226
0.915,0.217,-0.156,43.579,30.029,16.052
0.328,0.205,0.124,35.278,-60.791,-3.174
-0.510,-0.044,0.357,18.494,-140.503,-18.799
-1.337,-0.412,0.613,0.732,-178.406,-27.039
-1.682,-0.376,0.970,-8.118,-149.658,-31.250
-1.407,-0.111,1.474,-10.681,-69.519,-21.423
-0.781,0.028,1.865,-17.883,10.742,3.662
-0.284,0.067,1.895,-10.620,48.889,26.245
0.026,0.004,1.694,11.292,46.204,34.546
0.258,-0.139,1.445,31.006,27.039,33.875
0.469,-0.158,1.212,28.687,11.597,29.236
0.531,-0.105,1.002,12.512,2.991,25.513
0.444,-0.025,0.876,-4.333,-5.066,22.522
0.309,0.028,0.828,-14.893,-14.160,18.738
0.157,-0.002,0.886,-24.170,-20.142,16.541
0.067,-0.022,0.998,-33.264,-20.325,12.390
0.023,0.040,1.078,-29.175,-17.090,4.456
0.023,0.095,1.117,-11.475,-13.855,-2.747
0.036,0.129,1.193,3.418,-11.597,-7.019
0.055,0.139,1.276,15.442,-10.010,-11.780
0.024,0.159,1.323,29.785,-8.667,-18.494
-0.013,0.206,1.304,43.457,-8.545,-25.330
-0.021,0.297,1.230,52.307,-7.507,-29.602
0.013,0.361,1.126,60.120,-3.479,-29.236
0.027,0.310,1.026,65.002,2.441,-22.034
0.036,0.178,0.990,62.317,9.338,-12.085
0.031,0.062,1.026,52.246,15.503,-5.066
0.014,-0.018,1.104,36.255,17.395,-2.441
0.008,-0.079,1.158,15.869,13.062,-1.770
0.016,-0.133,1.135,-2.441,3.479,-2.319
0.026,-0.153,1.107,-17.639,-7.019,-4.395
0.032,-0.108,1.102,-34.058,-15.625,-7.446
0.009,-0.046,1.080,-47.791,-20.081,-8.850
-0.030,0.023,1.046,-55.603,-19.470,-7.629
-0.036,0.105,1.013,-57.434,-15.137,-5.249
-0.005,0.151,0.985,-52.979,-10.254,-1.770
0.005,0.132,0.960,-47.546,-7.019,3.113
0.010,0.096,0.971,-46.265,-5.676,7.385
0.009,0.057,0.987,-44.189,-7.141,8.728
0.001,0.031,0.988,-37.537,-11.353,8.362
-0.016,0.001,1.003,-31.494,-14.526,7.568
-0.010,-0.009,1.057,-29.846,-14.282,5.432
0.016,0.057,1.081,-29.419,-11.963,2.319
0.031,0.114,1.093,-21.851,-9.460,1.282
0.028,0.121,1.095,-6.531,-8.118,1.831
0.023,0.139,1.084,9.644,-7.812,2.380
0.020,0.125,1.087,21.790,-7.812,2.930
0.001,0.092,1.096,28.870,-8.484,2.136
-0.018,0.078,1.091,34.363,-10.437,-0.244
-0.041,0.083,1.067,38.086,-12.268,-2.808
-0.056,0.093,1.058,36.865,-13.550,-4.456
-0.059,0.079,1.049,30.823,-14.221,-5.920
-0.062,0.060,1.013,23.987,-13.855,-6.897
-0.049,0.050,1.004,18.494,-10.864,-6.531
-0.043,0.053,1.020,13.367,-6.775,-5.127
-0.038,0.060,1.014,9.277,-4.028,-2.991
-0.040,0.049,1.004,7.141,-3.601,-0.916
-0.037,0.037,1.008,5.127,-4.883,0.061
-0.031,0.037,1.006,1.404,-6.836,0.122
-0.042,0.015,1.016,-1.404,-7.202,0.244
-0.051,0.000,1.042,-2.136,-6.714,-0.366
-0.045,0.003,1.051,-1.465,-7.202,-1.465
-0.040,0.037,1.004,1.465,-7.080,-2.686
-0.053,0.086,0.955,6.042,-4.272,-3.113
-0.061,0.113,0.955,10.010,-1.038,-2.258
-0.043,0.086,0.983,12.512,-0.122,0.183
-0.043,0.037,1.001,10.864,-2.869,2.319
-0.045,-0.000,1.025,4.456,-7.568,2.991
-0.053,-0.013,1.047,-2.625,-12.878,2.686
-0.062,-0.031,1.043,-7.568,-17.761,1.465
-0.092,-0.044,1.031,-11.353,-20.874,0.366
-0.111,-0.063,1.027,-13.306,-21.240,-0.854
-0.107,-0.062,1.016,-16.235,-20.142,-1.892
-0.108,-0.032,1.002,-19.348,-17.517,-3.052
-0.127,-0.013,1.001,-20.569,-13.367,-3.723
-0.142,0.007,0.983,-20.996,-8.728,-4.333
-0.131,0.039,0.958,-20.996,-3.601,-5.188
-0.125,0.087,0.938,-17.700,2.075,-5.310
-0.096,0.109,0.968,-9.155,6.287,-4.333
-0.069,0.095,1.001,1.404,6.226,-2.991
-0.055,0.075,1.012,9.644,3.418,-2.197
-0.051,0.068,1.009,15.503,0.488,-2.197
-0.062,0.091,0.985,20.569,-0.854,-2.502
-0.067,0.095,0.953,27.100,0.610,-1.831
-0.066,0.047,0.944,33.081,3.479,-0.671
-0.059,0.024,0.942,33.630,6.714,0.000
-0.063,-0.006,0.965,31.799,8.789,-0.549
-0.077,-0.046,0.988,27.161,10.132,-1.526
-0.074,-0.044,1.008,17.700,10.742,-2.563
-0.034,0.031,1.000,8.606,10.803,-2.869
-0.060,-0.001,1.064,1.587,12.329,-1.221
-0.078,-0.019,1.121,-7.507,13.855,1.587
-0.082,-0.002,1.164,-15.625,13.245,0.488
-0.069,0.023,1.188,-18.616,10.559,-1.526
-0.056,0.034,1.203,-19.226,6.897,-2.563
-0.052,0.066,1.232,-17.212,3.723,-3.479
-0.073,0.084,1.278,-12.939,2.258,-3.662
-0.072,0.080,1.316,-9.583,1.831,-1.953
-0.044,0.064,1.334,-7.996,1.648,0.427
-0.025,0.048,1.336,-7.324,0.610,1.221
-0.024,0.030,1.324,-9.705,-1.648,0.732
-0.028,0.024,1.311,-17.517,-4.761,0.183
-0.025,0.038,1.291,-27.405,-9.216,0.671
-0.022,0.077,1.272,-35.034,-13.855,2.014
-0.022,0.109,1.281,-38.757,-17.639,3.540
-0.031,0.129,1.286,-38.574,-20.630,5.371
-0.055,0.154,1.268,-34.546,-22.522,7.141
-0.084,0.169,1.269,-25.757,-23.193,9.033
-0.099,0.175,1.266,-11.536,-23.254,10.254
-0.124,0.174,1.264,8.362,-21.790,9.644
-0.132,0.163,1.281,32.288,-18.860,8.118
-0.118,0.146,1.312,52.917,-15.137,7.202
-0.098,0.108,1.354,65.735,-12.390,7.324
-0.081,0.066,1.390,70.923,-11.414,7.202
-0.071,0.026,1.386,70.374,-13.000,6.531
-0.076,-0.001,1.368,67.017,-16.846,5.371
-0.085,-0.016,1.335,63.904,-22.522,4.517

-0.030,-0.481,2.120,61.462,20.020,18.677
-0.052,-0.454,2.045,53.833,0.549,12.573
-0.011,-0.430,1.933,52.612,-14.648,3.113
0.037,-0.372,1.765,48.584,-16.602,-6.470
0.096,-0.178,1.537,36.133,-5.310,-12.573
0.174,-0.090,1.420,29.724,13.062,-13.123
0.265,-0.095,1.406,27.039,25.635,-12.207
0.287,-0.084,1.307,15.381,24.414,-10.986
0.284,-0.086,1.202,4.578,15.930,-10.071
0.253,-0.084,1.103,-2.869,7.690,-7.874
0.170,-0.101,1.005,-13.245,2.319,-3.052
0.096,-0.163,1.005,-28.748,0.549,2.747
0.068,-0.217,1.097,-51.208,-1.404,7.080
0.059,-0.254,1.221,-73.120,-7.568,7.935
0.054,-0.239,1.284,-91.431,-20.813,5.554
0.031,-0.189,1.239,-102.295,-38.025,1.892
0.026,-0.137,1.158,-102.539,-52.551,-1.770
0.020,-0.122,1.130,-96.313,-60.364,-4.272
-0.001,-0.097,1.120,-89.661,-62.134,-5.981
-0.022,-0.053,1.099,-81.787,-59.143,-6.592
-0.033,-0.019,1.113,-69.885,-51.575,-4.761
-0.039,0.023,1.126,-56.702,-42.786,-3.174
-0.051,0.035,1.116,-45.044,-34.912,-2.380
-0.081,0.041,1.092,-36.377,-27.344,-2.075
-0.091,0.041,1.132,-29.724,-20.020,-2.563
-0.052,0.058,1.207,-23.560,-14.343,-3.418
-0.021,0.089,1.265,-11.230,-11.780,-4.456
-0.044,0.093,1.305,8.118,-12.146,-5.005
-0.062,0.051,1.398,28.137,-15.015,-4.639
-0.057,0.006,1.483,44.495,-21.240,-3.906
-0.054,-0.013,1.449,59.204,-29.724,-3.967
-0.067,-0.073,1.375,74.585,-37.781,-5.432
-0.107,-0.134,1.302,80.078,-42.847,-7.141
-0.147,-0.144,1.226,74.097,-42.908,-8.301
-0.166,-0.115,1.177,65.308,-37.537,-9.460
-0.175,-0.087,1.126,53.650,-28.870,-9.460
-0.191,-0.047,1.044,41.016,-18.372,-7.874
-0.204,-0.000,1.011,31.250,-6.653,-5.249
-0.202,0.027,1.010,23.315,4.883,-1.526
-0.168,0.042,1.024,12.573,14.160,3.174
-0.116,0.032,1.040,3.357,19.226,6.531
-0.075,0.003,1.043,-1.404,20.752,7.568
-0.050,-0.021,1.025,-2.075,20.020,7.385
-0.025,-0.014,0.968,0.122,18.250,8.850
-0.004,-0.034,0.870,7.080,14.465,11.963
-0.032,-0.042,0.811,22.217,9.949,13.184
-0.068,-0.123,0.893,41.443,6.958,12.451
-0.077,-0.202,0.997,53.101,5.432,10.315
-0.066,-0.271,1.090,53.894,5.066,7.690
-0.041,-0.299,1.163,45.105,4.944,3.784
-0.007,-0.290,1.200,27.649,3.296,-0.488
0.028,-0.248,1.216,6.165,-0.427,-3.296
0.053,-0.175,1.187,-9.521,-4.883,-3.784
0.035,-0.115,1.093,-12.634,-7.690,-2.686
-0.009,-0.106,1.029,-0.732,-6.348,-0.549
-0.031,-0.134,1.048,18.311,-3.906,1.343
-0.043,-0.215,1.121,31.311,-4.028,1.282
-0.072,-0.296,1.170,28.564,-7.263,-1.526
-0.099,-0.325,1.172,9.705,-11.353,-5.798
-0.102,-0.294,1.158,-17.883,-13.489,-10.132
-0.077,-0.211,1.154,-44.373,-12.878,-11.658
-0.025,-0.122,1.136,-61.401,-9.888,-10.376
0.010,-0.064,1.075,-66.162,-5.737,-6.836
-0.022,-0.020,0.979,-60.059,-0.305,-3.845
-0.049,-0.017,0.936,-42.786,5.859,-1.160
-0.058,-0.042,0.963,-19.714,10.864,1.343
-0.042,-0.097,1.001,-1.953,12.024,2.747
-0.037,-0.159,1.034,4.333,10.010,2.380
-0.059,-0.195,1.033,0.854,6.470,-0.488
-0.082,-0.165,1.035,-7.019,4.211,-4.211
-0.082,-0.099,1.056,-14.221,3.845,-6.836
-0.040,-0.067,1.071,-16.479,5.371,-5.859
-0.019,-0.051,1.096,-13.306,7.446,-4.028
-0.002,-0.038,1.136,-4.761,8.728,-2.991
0.029,-0.016,1.112,7.446,8.728,-2.686
0.025,-0.006,1.073,19.043,8.118,-2.869
-0.020,-0.022,0.984,27.527,8.301,-2.991
-0.059,-0.082,0.935,28.809,10.376,-2.686
-0.057,-0.115,0.924,23.926,12.878,-2.136
-0.038,-0.152,0.957,14.709,14.343,-1.587
-0.029,-0.161,1.000,2.319,14.404,-1.953
-0.015,-0.124,1.028,-8.545,14.526,-2.441
0.010,-0.095,1.078,-11.597,14.282,-2.075
0.028,-0.076,1.107,-6.287,13.794,-0.916
0.003,-0.086,1.135,4.150,13.184,-0.488
-0.023,-0.134,1.148,16.052,12.146,-1.282
-0.044,-0.151,1.139,24.841,9.521,-3.052
-0.036,-0.199,1.121,29.846,5.920,-4.883
-0.038,-0.266,1.124,27.344,2.380,-7.996
-0.099,-0.296,1.143,16.418,-0.671,-12.085
-0.154,-0.271,1.149,0.610,-2.014,-14.587
-0.134,-0.201,1.213,-20.630,-0.122,-12.634
-0.034,-0.161,1.355,-47.668,3.845,-6.042
0.026,-0.054,1.379,-72.876,6.958,1.526
0.008,0.036,1.345,-80.750,7.507,5.737
-0.041,0.075,1.337,-69.885,6.042,5.188
-0.067,0.042,1.386,-52.979,3.540,3.418
-0.125,0.014,1.477,-40.283,0.732,1.343
-0.164,-0.018,1.533,-29.907,-2.625,-1.892
-0.164,-0.027,1.509,-23.987,-6.775,-4.150
-0.185,-0.085,1.592,-27.649,-11.230,-6.226
-0.178,-0.152,1.671,-33.203,-14.343,-9.033
-0.157,-0.207,1.792,-42.480,-18.494,-12.695
-0.094,-0.210,1.920,-56.702,-26.001,-14.771
-0.084,-0.052,1.786,-70.496,-37.598,-13.855
-0.100,-0.011,1.634,-71.777,-48.096,-8.301
-0.082,0.006,1.463,-65.674,-53.589,-4.517
-0.063,0.082,1.334,-55.481,-54.077,-7.141
-0.083,0.136,1.261,-40.344,-50.049,-11.963
-0.104,0.123,1.262,-25.879,-43.579,-15.686
-0.123,0.038,1.247,-15.137,-37.109,-18.738
-0.190,-0.016,1.229,-8.545,-32.532,-22.888
-0.240,-0.056,1.244,-2.380,-29.541,-27.649
-0.245,0.020,1.234,3.784,-28.015,-31.433
-0.223,0.135,1.262,4.211,-27.954,-31.982
-0.182,0.171,1.263,7.202,-28.931,-27.710
-0.142,0.129,1.217,13.428,-31.433,-20.874
-0.120,0.182,1.240,16.052,-35.095,-15.442
-0.088,0.175,1.238,22.583,-38.330,-10.620

0.097,-0.961,1.957,112.244,-146.912,-22.522
0.028,-1.084,2.103,47.729,-126.160,-30.945
-0.012,-0.997,2.245,-17.517,-98.267,-40.039
-0.019,-0.872,2.395,-63.904,-72.876,-47.913
-0.004,-0.689,2.476,-83.618,-61.340,-54.321
-0.051,-0.454,2.363,-79.712,-60.913,-58.105
-0.131,-0.238,2.124,-60.181,-60.791,-56.702
-0.130,-0.054,1.907,-42.969,-54.321,-48.340
-0.116,0.179,1.708,-32.715,-42.542,-37.109
-0.149,0.311,1.557,-23.010,-29.480,-24.353
-0.181,0.273,1.405,-17.822,-17.395,-12.024
-0.159,0.176,1.285,-26.917,-8.850,-2.136
-0.069,0.098,1.191,-43.396,-7.080,5.127
0.015,0.031,1.107,-56.335,-11.292,9.399
0.036,-0.081,1.013,-62.012,-17.822,11.719
0.050,-0.160,0.932,-61.951,-23.437,11.597
0.020,-0.170,0.902,-61.340,-26.917,10.010
-0.030,-0.123,0.950,-59.265,-28.442,7.324
-0.052,-0.065,1.020,-51.636,-31.311,4.333
-0.037,0.002,1.073,-40.649,-36.438,1.404
-0.058,0.029,1.111,-33.936,-43.091,-1.282
-0.114,0.018,1.184,-32.471,-49.194,-2.869
-0.154,0.032,1.297,-33.203,-54.016,-3.845
-0.205,0.039,1.362,-28.137,-55.054,-5.188
-0.301,0.046,1.422,-20.874,-49.377,-5.798
-0.351,0.045,1.468,-15.442,-38.879,-5.188
-0.361,0.077,1.466,-8.423,-26.794,-6.042
-0.371,0.118,1.470,-3.296,-13.062,-6.348
-0.309,0.147,1.452,-2.136,-0.732,-3.662
-0.230,0.174,1.332,4.456,8.911,-1.343
-0.173,0.200,1.174,19.531,15.686,0.366
-0.115,0.185,1.099,37.903,19.836,1.770
-0.062,0.163,1.101,54.138,21.179,2.869
-0.020,0.136,1.118,66.772,19.409,4.639
-0.028,0.078,1.098,84.045,16.602,6.348
-0.038,-0.006,1.196,103.516,17.578,8.301
-0.075,-0.093,1.250,110.107,16.907,10.010
-0.074,-0.212,1.233,110.596,13.550,9.460
-0.060,-0.335,1.183,98.877,8.545,6.897
-0.061,-0.346,1.104,74.402,4.272,3.296
-0.060,-0.284,0.998,45.959,3.052,-0.305
-0.046,-0.179,0.860,22.644,6.165,-1.953
-0.004,-0.081,0.742,8.423,13.123,-1.770
0.021,0.018,0.633,1.465,22.461,0.183
-0.003,0.005,0.683,-1.404,32.898,4.395
-0.025,0.015,0.831,-6.165,40.283,9.338
-0.056,-0.038,1.035,-7.385,38.696,12.817
-0.095,-0.143,1.211,-5.615,25.879,13.245
-0.143,-0.242,1.287,-8.240,5.798,9.460
-0.146,-0.318,1.293,-16.235,-15.442,2.197
-0.114,-0.272,1.188,-28.564,-34.607,-6.042
-0.096,-0.185,1.066,-39.490,-45.044,-13.245
-0.074,-0.099,0.974,-47.791,-44.373,-17.212
-0.071,-0.030,0.934,-53.589,-35.645,-17.883
-0.088,0.005,0.975,-54.443,-24.414,-16.113
-0.087,0.002,1.074,-48.645,-14.648,-12.146
-0.109,0.022,1.183,-34.363,-10.071,-9.033
-0.097,0.055,1.210,-10.010,-10.803,-7.874
-0.145,-0.049,1.248,17.029,-14.099,-6.042
-0.151,-0.095,1.215,32.837,-17.029,-4.333
-0.128,-0.111,1.217,34.546,-17.822,-4.272
-0.094,-0.040,1.196,30.640,-17.456,-5.493
-0.083,0.000,1.171,28.503,-16.235,-4.883
-0.079,-0.003,1.171,26.611,-13.977,-2.258
-0.090,-0.017,1.209,26.062,-11.536,0.854
-0.097,-0.038,1.247,30.579,-10.315,3.540
-0.094,-0.073,1.240,40.405,-12.634,5.066
-0.101,-0.167,1.196,50.171,-17.883,5.737
-0.120,-0.250,1.088,54.382,-24.719,4.150
-0.150,-0.301,0.971,52.307,-30.151,0.549
-0.157,-0.300,0.900,42.175,-31.128,-2.563
-0.130,-0.248,0.868,24.536,-26.672,-4.089
-0.120,-0.178,0.867,6.348,-18.738,-5.127
-0.133,-0.140,0.926,-10.803,-9.094,-4.578
-0.132,-0.142,1.010,-30.090,-0.427,-3.235
-0.123,-0.111,1.088,-51.697,5.859,-3.235
-0.157,-0.144,1.209,-65.002,7.935,-3.723
-0.193,-0.125,1.297,-67.200,4.578,-5.859
-0.228,-0.100,1.313,-58.533,-3.540,-9.521
-0.228,-0.071,1.293,-41.321,-12.268,-10.925
-0.215,-0.032,1.302,-22.400,-18.738,-9.827
-0.202,-0.032,1.315,-6.958,-20.508,-7.507
-0.182,-0.029,1.334,-1.343,-17.700,-5.188
-0.183,-0.041,1.396,-3.174,-12.817,-3.601
-0.180,-0.066,1.490,-8.972,-8.789,-2.930
-0.174,-0.069,1.568,-19.287,-7.446,-2.991
-0.173,-0.040,1.631,-30.090,-8.545,-2.991
-0.134,0.013,1.662,-35.461,-11.169,-3.113
-0.166,0.058,1.671,-32.715,-14.832,-2.502
-0.226,0.058,1.647,-27.283,-17.822,0.061
-0.276,0.030,1.611,-20.996,-19.470,2.625
-0.318,0.006,1.580,-15.503,-19.470,3.601
-0.337,-0.019,1.554,-10.864,-19.043,2.197
-0.319,-0.042,1.545,-8.423,-18.250,0.244
-0.294,-0.051,1.566,-10.620,-18.005,-1.587
-0.287,-0.004,1.565,-13.916,-19.226,-2.747
-0.282,-0.001,1.549,-17.700,-20.813,-1.831
-0.274,-0.005,1.508,-20.874,-21.790,0.183
-0.275,-0.011,1.475,-22.156,-21.423,1.282
-0.266,0.009,1.443,-20.813,-19.165,1.282
-0.249,0.028,1.424,-18.921,-15.869,1.282
-0.238,0.043,1.389,-17.151,-12.329,0.793
-0.238,0.032,1.360,-15.747,-8.423,0.366
-0.251,0.014,1.351,-14.954,-4.395,-0.854
-0.261,0.002,1.341,-14.587,-1.465,-2.563
-0.262,0.000,1.343,-14.282,1.099,-3.906
-0.267,0.017,1.351,-11.902,1.770,-5.737
-0.271,0.023,1.341,-5.859,0.854,-6.897
-0.279,0.021,1.318,0.977,-0.549,-6.775
-0.295,0.022,1.275,8.057,-2.014,-6.287
-0.304,0.020,1.236,15.564,-2.380,-5.798
-0.303,0.010,1.213,21.240,-1.526,-4.944
-0.295,0.001,1.214,24.170,0.427,-4.150
-0.287,0.001,1.204,24.719,2.014,-3.723
-0.281,-0.004,1.177,24.353,3.296,-3.540
-0.329,-0.070,1.131,22.705,4.700,-3.845
-0.305,-0.077,1.019,10.315,9.766,-6.531
-0.266,-0.030,0.958,-2.380,20.447,-11.230
-0.234,-0.018,0.982,-3.906,30.579,-14.221

1.812,0.780,-1.466,-165.894,156.433,-1.404
1.740,0.428,-1.277,-179.016,138.062,4.456
0.882,-0.207,-0.964,-181.396,85.327,-0.427
0.059,-0.398,-0.771,-196.167,13.367,-29.602
-0.446,-0.158,-0.593,-187.073,-43.457,-71.289
-1.056,0.070,-0.474,-161.926,-67.810,-83.374
-1.257,0.442,0.070,-124.268,-53.894,-62.439
-0.913,0.870,0.810,-72.449,-25.513,-23.315
-0.449,0.937,1.072,-13.245,-13.855,23.193
-0.005,0.597,1.000,60.303,-12.268,60.852
0.192,0.174,0.867,138.245,-6.836,85.449
0.154,-0.335,0.798,186.584,-1.221,95.215
0.296,-0.637,0.762,194.519,1.587,76.965
0.255,-0.588,0.712,167.236,7.263,41.748
0.065,-0.287,0.737,126.709,17.395,13.916
-0.007,-0.158,0.893,101.685,25.024,5.493
-0.011,-0.220,1.056,91.003,18.555,3.845
-0.006,-0.256,1.106,82.458,-2.258,0.610
0.015,-0.207,1.101,72.266,-24.536,-4.761
0.020,-0.139,1.089,57.678,-36.682,-11.353
0.008,-0.080,1.076,42.175,-33.875,-15.808
0.054,-0.052,1.059,28.320,-19.348,-17.822
0.111,0.004,1.072,6.165,-2.502,-17.334
0.114,0.075,1.177,-17.822,9.277,-15.381
0.094,0.122,1.287,-35.156,12.634,-13.489
0.066,0.123,1.279,-48.523,8.179,-11.536
0.032,0.104,1.203,-59.937,1.831,-9.094
0.001,0.087,1.122,-64.697,-2.502,-6.592
0.036,0.031,1.048,-59.143,-4.944,-5.249
0.071,-0.003,0.992,-49.988,-7.080,-4.456
0.078,0.018,1.002,-38.879,-7.935,-3.906
0.105,0.004,1.090,-23.865,-10.193,-1.587
0.089,-0.060,1.092,-6.836,-17.639,0.549
0.042,-0.079,1.066,7.019,-26.489,0.610
-0.033,-0.060,1.060,16.846,-32.410,-0.366
-0.070,-0.065,1.061,15.076,-34.363,-1.587
-0.089,-0.072,1.040,3.723,-31.921,-3.052
-0.090,-0.046,1.028,-8.789,-24.658,-4.761
-0.038,-0.036,1.017,-22.766,-16.357,-6.287
0.025,0.009,1.006,-33.386,-11.047,-8.179
0.067,0.067,0.981,-37.415,-11.230,-8.362
0.071,0.056,0.989,-35.034,-16.357,-5.798
0.011,0.029,1.010,-28.992,-24.353,-3.967
-0.057,0.010,1.012,-19.043,-33.630,-3.174
-0.105,-0.074,1.052,-5.127,-42.603,-2.686
-0.160,-0.094,1.072,5.127,-49.866,-4.700
-0.202,-0.068,1.082,7.874,-51.208,-7.874
-0.206,-0.040,1.091,5.493,-44.312,-9.399
-0.182,-0.007,1.131,0.549,-29.846,-9.460
-0.183,0.019,1.250,-3.418,-10.742,-8.118
-0.169,0.029,1.413,-6.165,4.089,-4.822
-0.115,0.008,1.473,-2.014,9.460,-2.258
-0.076,-0.001,1.400,9.705,5.981,-2.197
-0.089,0.016,1.286,19.104,0.610,-3.174
-0.110,0.042,1.206,22.644,-2.502,-3.113
-0.105,0.047,1.156,26.123,-3.174,-1.587
-0.087,0.038,1.091,29.297,-3.479,0.854
-0.085,0.016,1.033,28.015,-3.601,3.235
-0.098,-0.021,1.016,21.729,-3.052,6.104
-0.074,-0.040,1.073,12.695,-2.747,8.911
-0.028,-0.042,1.129,5.188,-4.333,10.986
-0.032,-0.050,1.145,0.366,-7.385,12.268
-0.068,-0.060,1.164,-4.211,-9.277,12.146
-0.099,-0.032,1.178,-9.216,-9.949,11.047
-0.120,0.007,1.179,-9.827,-10.132,10.498
-0.141,0.017,1.195,-5.310,-10.376,10.559
-0.143,-0.032,1.251,-0.732,-11.597,10.315
-0.117,-0.063,1.260,-2.014,-14.709,9.766
-0.088,-0.048,1.206,-5.432,-18.494,8.423
-0.083,-0.026,1.170,-6.348,-19.653,7.141
-0.074,-0.014,1.163,-5.859,-17.517,6.287
-0.083,0.001,1.171,-3.845,-13.977,6.653
-0.091,-0.008,1.173,-0.244,-10.254,8.118
-0.099,-0.026,1.179,4.517,-7.141,9.827
-0.121,-0.042,1.202,10.132,-4.395,10.559
-0.136,-0.072,1.228,14.526,-3.296,10.681
-0.137,-0.116,1.241,16.663,-4.028,10.193
-0.121,-0.105,1.240,14.587,-7.263,8.179
-0.103,-0.102,1.239,9.521,-11.353,5.554
-0.089,-0.104,1.252,2.075,-15.991,2.625
-0.086,-0.061,1.296,-7.996,-20.935,0.366
-0.091,0.002,1.335,-13.855,-25.757,-0.732
-0.130,0.007,1.338,-13.000,-30.518,-1.465
-0.162,-0.000,1.297,-10.559,-34.302,-2.563
-0.170,0.003,1.236,-12.024,-35.522,-4.089
-0.177,-0.001,1.215,-16.418,-32.959,-5.737
-0.171,0.025,1.216,-20.508,-28.198,-7.874
-0.154,0.067,1.210,-21.240,-23.010,-10.376
-0.232,0.019,1.292,-18.921,-17.578,-10.193
-0.291,0.056,1.387,-13.245,-13.184,-9.521
-0.301,0.130,1.490,-2.136,-11.902,-7.324
-0.270,0.143,1.609,15.076,-14.771,-3.784
-0.239,0.110,1.677,32.227,-22.583,-0.610
-0.226,0.087,1.644,44.617,-32.959,1.648
-0.225,0.040,1.542,53.833,-41.138,3.174
-0.246,-0.030,1.457,60.852,-42.786,3.601
-0.284,-0.057,1.408,60.791,-37.415,2.502
-0.311,-0.057,1.393,53.833,-27.039,2.258
-0.309,-0.058,1.424,42.725,-14.893,4.089
-0.291,-0.059,1.473,31.189,-5.005,6.592
-0.287,-0.079,1.516,22.095,0.305,7.690
-0.291,-0.095,1.558,16.418,2.136,7.629
-0.302,-0.090,1.614,13.184,0.366,7.324
-0.301,-0.083,1.647,11.658,-3.540,6.958
-0.297,-0.081,1.643,11.719,-7.812,6.836
-0.293,-0.092,1.630,14.832,-10.559,6.226
-0.290,-0.118,1.634,17.700,-10.925,4.211
-0.292,-0.141,1.626,13.672,-9.338,0.916
-0.287,-0.136,1.588,0.427,-5.798,-2.075
-0.254,-0.109,1.558,-18.127,-1.587,-3.723
-0.209,-0.061,1.521,-34.302,1.770,-5.859
-0.183,-0.015,1.474,-43.518,2.808,-8.972
-0.178,0.020,1.404,-46.753,1.160,-11.902
-0.199,0.035,1.320,-44.739,-2.136,-14.221
-0.241,0.038,1.247,-37.781,-5.066,-16.357
-0.288,0.051,1.195,-28.503,-7.568,-17.944
-0.321,0.063,1.156,-20.020,-8.789,-17.761
-0.337,0.092,1.151,-16.418,-8.667,-15.381
-0.335,0.111,1.161,-17.517,-7.690,-11.597

1.951,0.376,-2.247,-142.517,179.138,-21.912
1.832,-0.033,-2.208,-162.292,164.429,-26.062
1.091,-0.094,-1.724,-197.998,103.455,-41.565
0.199,0.118,-0.762,-194.092,0.549,-58.716
-0.619,0.117,-0.039,-130.066,-121.521,-57.251
-1.168,0.316,0.104,-31.433,-209.778,-45.654
-1.282,0.521,0.232,50.415,-211.792,-28.992
-1.057,0.637,0.674,99.304,-136.292,-6.287
-0.550,0.515,1.330,134.521,-44.922,24.963
0.113,0.139,1.882,166.931,4.700,50.415
0.462,-0.249,2.028,185.181,-2.502,50.842
0.506,-0.372,1.886,149.536,-42.175,34.363
0.234,-0.384,1.535,77.637,-81.787,18.066
-0.106,-0.531,1.265,23.437,-94.482,7.935
-0.357,-0.699,1.316,-4.272,-79.529,-0.244
-0.412,-0.630,1.465,-30.029,-56.458,-9.155
-0.292,-0.194,1.490,-42.175,-36.316,-18.250
-0.106,0.114,1.445,-26.489,-18.372,-17.944
-0.011,0.232,1.415,-5.981,-4.883,-7.690
0.090,0.335,1.335,0.854,0.854,1.892
0.157,0.383,1.285,-0.671,0.366,10.010
0.086,0.236,1.276,-11.719,-3.235,16.785
-0.025,0.161,1.152,-31.128,-8.179,16.174
-0.011,0.098,1.049,-54.443,-11.414,12.146
0.058,0.105,1.035,-72.998,-11.353,9.583
0.056,0.115,1.099,-75.867,-9.827,6.958
0.051,0.135,1.183,-70.374,-9.155,5.493
0.093,0.216,1.238,-59.509,-11.841,5.737
0.079,0.223,1.177,-39.917,-19.653,7.935
-0.001,0.138,1.106,-20.508,-30.334,10.132
-0.058,0.100,1.067,-10.498,-41.321,9.827
-0.085,0.097,1.035,-10.132,-50.354,7.568
-0.109,0.129,1.013,-16.846,-56.274,5.188
-0.129,0.141,0.973,-22.766,-58.777,3.784
-0.178,0.119,0.959,-23.621,-56.274,2.930
-0.183,0.151,0.975,-23.193,-50.232,2.075
-0.134,0.208,0.974,-15.503,-42.358,0.793
-0.114,0.214,0.958,-0.977,-32.532,0.488
-0.120,0.207,0.968,13.855,-22.827,1.038
-0.175,0.141,1.095,28.931,-14.465,2.258
-0.215,0.132,1.215,42.358,-10.925,0.916
-0.197,0.229,1.296,57.861,-12.207,-1.648
-0.219,0.186,1.400,79.895,-14.893,-0.793
-0.238,0.133,1.417,96.130,-19.043,0.183
-0.201,0.133,1.378,102.722,-22.705,-0.671
-0.147,0.127,1.338,103.271,-24.536,0.183
-0.102,0.095,1.266,99.548,-25.085,2.197
-0.101,0.036,1.180,90.393,-23.315,3.723
-0.121,-0.026,1.157,72.021,-18.005,3.967
-0.149,-0.068,1.162,45.105,-10.742,2.625
-0.204,-0.046,1.190,14.526,-4.272,-0.244
-0.225,-0.013,1.218,-10.986,0.671,-2.258
-0.208,0.034,1.208,-27.527,5.005,-3.845
-0.198,0.077,1.188,-34.180,9.644,-4.822
-0.169,0.102,1.179,-30.518,13.611,-4.761
-0.124,0.103,1.194,-18.616,14.526,-3.967
-0.094,0.079,1.209,-5.676,11.841,-3.540
-0.086,0.073,1.210,2.563,7.263,-3.113
-0.086,0.084,1.235,7.690,3.418,-2.625
-0.085,0.106,1.255,13.855,0.061,-1.770
-0.123,0.073,1.255,20.569,-2.625,-1.099
-0.167,-0.005,1.271,24.231,-3.662,-0.916
-0.195,-0.030,1.268,20.996,-4.272,-2.319
-0.184,-0.017,1.239,14.160,-4.578,-3.479
-0.142,-0.003,1.200,8.850,-4.517,-3.906
-0.128,0.004,1.158,5.127,-3.418,-3.723
-0.127,0.051,1.116,4.578,-1.099,-3.052
-0.104,0.056,1.140,9.277,1.648,-1.282
-0.102,-0.002,1.157,14.587,2.258,0.977
-0.131,-0.022,1.126,13.489,1.160,1.526
-0.161,-0.023,1.124,8.850,0.977,1.160
-0.161,-0.014,1.131,5.981,1.404,0.305
-0.142,-0.009,1.125,5.127,0.977,0.244
-0.132,-0.006,1.090,4.089,-0.488,0.427
-0.114,-0.011,1.047,2.808,0.305,0.183
-0.078,0.009,1.031,-2.075,4.272,0.061
-0.057,0.027,1.072,-8.972,10.071,0.916
-0.048,0.080,1.105,-14.832,14.038,2.014
-0.059,0.096,1.118,-15.747,14.832,2.869
-0.109,0.083,1.094,-13.428,12.512,3.235
-0.156,0.055,1.063,-12.817,8.911,2.930
-0.176,0.023,1.069,-13.855,4.700,2.747
-0.182,-0.005,1.106,-15.686,-1.648,2.991
-0.161,-0.025,1.136,-15.137,-10.620,3.113
-0.128,-0.018,1.160,-10.315,-21.057,3.418
-0.123,0.027,1.199,0.488,-30.823,3.113
-0.136,0.115,1.245,20.752,-37.476,3.906
-0.137,0.146,1.314,49.683,-39.307,5.493
-0.156,0.111,1.358,79.407,-36.316,6.348
-0.235,0.048,1.401,100.098,-30.029,5.432
-0.298,-0.043,1.442,104.614,-21.973,3.601
-0.318,-0.066,1.449,95.215,-12.024,1.587
-0.294,-0.075,1.470,77.271,-1.343,1.343
-0.255,-0.114,1.502,59.326,8.667,3.601
-0.201,-0.165,1.571,44.189,14.648,6.409
-0.183,-0.206,1.626,27.588,13.794,7.935
-0.180,-0.205,1.668,10.742,6.470,8.972
-0.181,-0.212,1.681,-0.977,-4.211,10.803
-0.207,-0.216,1.657,-12.634,-18.127,11.719
-0.240,-0.194,1.615,-20.203,-32.043,10.315
-0.266,-0.198,1.599,-24.475,-43.274,7.446
-0.279,-0.203,1.547,-30.640,-51.086,3.113
-0.285,-0.209,1.436,-39.063,-53.406,-1.770
-0.273,-0.215,1.314,-47.913,-46.570,-6.897
-0.246,-0.207,1.251,-62.134,-31.311,-13.367
-0.222,-0.140,1.260,-78.430,-13.184,-20.386
-0.205,-0.014,1.317,-92.957,2.380,-26.306
-0.199,0.085,1.330,-99.792,11.780,-28.137
-0.199,0.127,1.333,-97.473,14.526,-26.001
-0.202,0.156,1.328,-88.135,12.085,-23.376
-0.196,0.178,1.284,-72.876,6.714,-22.095
-0.205,0.205,1.248,-56.702,-0.061,-21.240
-0.238,0.228,1.160,-38.940,-6.592,-19.958
-0.257,0.227,1.113,-24.048,-11.353,-16.602
-0.267,0.222,1.086,-14.282,-14.282,-13.000
-0.264,0.223,1.053,-6.592,-14.648,-9.094
-0.242,0.218,1.056,-1.343,-12.817,-5.005
-0.213,0.190,1.083,4.456,-9.827,-2.441
-0.197,0.174,1.119,12.512,-7.202,-1.160

0.781,0.057,-1.980,-115.601,153.381,-34.180
0.816,0.443,-2.204,-84.656,114.990,-58.350
0.761,0.652,-2.541,-50.720,56.152,-63.599
0.549,0.625,-2.643,13.611,1.953,-55.908
0.455,0.496,-2.192,100.403,-44.556,-39.795
0.073,0.283,-1.677,173.401,-92.285,-21.179
-0.704,0.091,-0.823,217.590,-136.169,-11.414
-1.003,-0.131,0.384,242.493,-177.002,-3.845
-0.896,-0.497,1.303,265.991,-210.022,1.770
-0.751,-0.858,1.785,261.963,-213.806,-2.014
-0.416,-1.089,2.147,211.304,-179.687,-15.808
-0.049,-1.046,2.448,129.639,-132.385,-32.776
-0.039,-0.892,2.541,45.044,-103.638,-45.349
-0.190,-0.822,2.598,-17.090,-94.116,-47.241
-0.330,-0.710,2.612,-61.584,-88.684,-43.213
-0.384,-0.579,2.608,-89.233,-80.627,-36.438
-0.401,-0.467,2.560,-100.647,-68.848,-30.212
-0.410,-0.250,2.395,-97.778,-51.025,-26.428
-0.392,-0.011,2.256,-81.665,-24.658,-19.409
-0.306,0.158,2.203,-62.439,5.676,-6.897
-0.145,0.228,2.074,-42.725,30.640,6.531
-0.051,0.208,1.820,-26.917,45.898,17.944
0.048,0.109,1.606,-24.109,53.772,25.757
0.187,0.017,1.465,-32.776,55.237,28.137
0.262,0.011,1.351,-45.349,49.011,25.208
0.209,-0.013,1.194,-54.260,36.072,19.958
0.145,-0.045,1.092,-50.964,20.874,13.672
0.098,-0.093,1.029,-36.011,8.240,7.324
0.025,-0.083,0.987,-14.709,-1.282,1.160
-0.040,-0.079,0.946,6.409,-6.775,-2.502
-0.087,-0.052,0.934,21.240,-9.705,-3.906
-0.093,-0.023,0.938,29.541,-12.329,-4.089
-0.067,-0.005,0.988,31.616,-16.174,-3.723
-0.056,-0.001,1.022,25.818,-22.400,-3.296
-0.034,-0.000,1.031,17.212,-28.687,-4.211
-0.025,-0.009,1.034,9.644,-33.020,-5.981
-0.043,0.006,1.031,0.854,-35.095,-7.996
-0.074,0.013,1.049,-7.935,-34.058,-9.094
-0.076,0.011,1.134,-13.000,-29.602,-9.338
-0.102,0.001,1.164,-17.395,-26.550,-9.155
-0.121,0.021,1.181,-19.043,-24.902,-9.155
-0.138,0.025,1.190,-16.479,-22.095,-8.118
-0.142,0.032,1.233,-12.634,-18.921,-6.836
-0.118,0.023,1.281,-5.249,-18.433,-5.188
-0.103,-0.008,1.240,4.333,-21.240,-3.296
-0.101,-0.049,1.177,12.634,-23.010,-1.526
-0.125,-0.085,1.157,16.296,-21.484,-0.122
-0.119,-0.092,1.136,18.066,-17.456,0.122
-0.098,-0.101,1.112,19.287,-12.512,-0.549
-0.106,-0.098,1.096,15.259,-7.507,-2.441
-0.094,-0.051,1.108,5.432,-2.808,-4.395
-0.082,0.002,1.121,-4.150,0.732,-5.798
-0.088,0.015,1.127,-8.728,2.930,-6.287
-0.074,0.039,1.107,-11.353,3.296,-6.165
-0.063,0.075,1.069,-12.329,2.686,-5.859
-0.059,0.060,1.072,-9.644,1.221,-4.883
-0.068,0.028,1.049,-6.287,-2.197,-3.540
-0.077,-0.000,0.999,-3.235,-5.493,-2.441
-0.066,-0.051,0.968,-2.136,-5.798,-0.732
-0.069,-0.078,0.966,-4.272,-4.395,0.305
-0.075,-0.080,0.969,-7.690,-3.906,0.061
-0.076,-0.089,0.981,-9.888,-3.906,-0.610
-0.081,-0.066,1.005,-13.672,-1.892,-2.258
-0.100,-0.007,1.040,-15.198,1.892,-3.845
-0.096,0.031,1.089,-10.620,5.066,-4.578
-0.085,0.027,1.130,-2.991,4.883,-4.150
-0.101,0.046,1.114,7.996,1.343,-3.845
-0.102,0.014,1.130,21.118,-3.784,-3.418
-0.105,-0.019,1.109,29.785,-9.766,-3.418
-0.135,-0.044,1.058,32.959,-12.634,-3.662
-0.149,-0.082,1.051,32.104,-10.315,-3.662
-0.137,-0.102,1.073,27.588,-6.165,-3.906
-0.151,-0.112,1.079,20.752,-3.418,-4.761
-0.154,-0.096,1.090,10.681,-2.319,-5.188
-0.135,-0.057,1.117,0.793,-2.136,-5.371
-0.119,-0.018,1.147,-2.686,-2.808,-4.822
-0.110,-0.012,1.172,2.258,-3.906,-3.662
-0.105,-0.033,1.184,8.789,-6.531,-2.747
-0.129,-0.075,1.195,16.357,-9.583,-2.869
-0.130,-0.091,1.183,23.437,-13.306,-5.310
-0.115,-0.071,1.162,25.452,-17.212,-8.118
-0.126,-0.070,1.134,24.902,-19.043,-9.277
-0.142,-0.058,1.097,23.193,-18.188,-9.460
-0.152,-0.042,1.063,19.287,-15.930,-8.423
-0.155,-0.054,1.070,12.695,-14.099,-6.714
-0.168,-0.057,1.099,4.211,-13.489,-6.226
-0.168,-0.067,1.092,-3.296,-13.428,-7.690
-0.151,-0.055,1.074,-9.888,-11.658,-9.705
-0.145,-0.028,1.093,-15.503,-7.690,-10.742
-0.144,-0.020,1.126,-16.785,-4.395,-10.132
-0.136,-0.016,1.139,-14.038,-3.235,-9.216
-0.131,-0.020,1.134,-9.033,-3.174,-8.484
-0.139,-0.025,1.100,-2.930,-3.174,-7.507
-0.156,-0.032,1.065,0.854,-2.380,-5.920
-0.156,-0.039,1.025,2.136,-0.671,-4.517
-0.129,-0.050,0.985,2.502,1.221,-3.540
-0.105,-0.050,0.950,1.465,3.235,-3.235
-0.101,-0.041,0.935,0.061,5.066,-2.930
-0.101,-0.031,0.946,-0.305,6.958,-2.563
-0.097,-0.038,0.971,-0.916,9.033,-2.075
-0.103,-0.045,1.003,-3.662,10.742,-1.709
-0.115,-0.039,1.033,-7.996,11.780,-1.770
-0.119,-0.026,1.064,-9.033,12.756,-2.441
-0.118,-0.001,1.089,-7.202,13.000,-3.174
-0.091,0.003,1.115,-3.418,11.780,-3.174
-0.094,0.020,1.142,-0.244,8.179,-2.441
-0.074,-0.004,1.179,3.540,2.991,-1.404
-0.061,-0.028,1.221,8.423,-2.808,-0.977
-0.093,-0.047,1.252,13.245,-9.399,-2.136
-0.132,-0.051,1.275,15.381,-15.564,-2.991
-0.163,-0.051,1.315,14.648,-19.470,-3.479
-0.195,-0.055,1.376,12.878,-21.729,-3.906
-0.247,-0.100,1.431,10.742,-24.597,-4.395
-0.242,-0.085,1.496,5.493,-27.954,-6.531
-0.206,-0.045,1.527,-0.732,-30.640,-8.484
-0.193,-0.008,1.539,-7.202,-32.104,-8.850
-0.188,0.013,1.551,-12.451,-32.410,-7.446
-0.189,0.015,1.535,-14.099,-32.532,-5.127
-0.192,0.001,1.512,-12.329,-32.227,-3.479
