aX,aY,aZ,gX,gY,gZ
0.147,-1.909,0.972,72.876,-28.748,-112.061
-0.211,-2.337,0.827,79.834,-44.250,-113.708
-0.472,-2.692,0.731,69.458,-50.049,-94.116
-0.663,-2.907,0.694,36.133,-48.279,-49.683
-0.848,-2.871,0.738,-12.817,-43.640,14.221
-1.018,-2.534,0.816,-58.777,-40.466,89.294
-1.130,-1.990,0.773,-97.412,-39.978,166.138
-1.212,-1.380,0.826,-133.850,-39.185,234.314
-1.252,-0.814,0.882,-165.588,-43.518,278.442
-1.301,-0.097,0.927,-198.364,-54.199,287.354
-1.395,1.013,0.897,-226.990,-57.861,263.672
-1.464,2.386,0.843,-232.056,-40.833,224.365
-1.334,3.703,0.792,-207.520,-1.282,185.059
-0.940,4.000,0.723,-161.804,50.354,150.085
-0.431,4.000,0.565,-105.835,99.792,111.206
0.076,4.000,0.380,-49.377,133.911,57.373
0.292,3.997,0.152,7.141,148.804,-13.000
0.301,3.513,0.168,62.195,143.555,-95.032
0.514,3.050,0.170,114.319,107.666,-178.955
0.690,2.286,0.122,185.486,55.664,-245.361
0.656,0.731,0.110,279.297,3.052,-288.452
0.518,-1.270,0.030,365.723,-46.875,-320.374
-0.056,-3.309,-0.195,395.752,-86.426,-345.093
-0.726,-4.000,-0.257,345.825,-99.609,-355.225
-1.381,-4.000,-0.174,223.511,-85.876,-337.830
-1.871,-4.000,0.181,75.684,-61.035,-269.592
-1.970,-4.000,0.707,-46.814,-48.035,-137.146
-1.861,-3.383,1.012,-119.446,-56.580,30.518
-1.536,-2.774,1.030,-150.757,-74.951,177.734
-1.238,-1.870,1.016,-185.303,-88.684,270.081
-1.175,-0.474,1.164,-249.878,-91.064,311.584
-0.984,1.302,1.158,-313.354,-76.538,307.190
-0.761,3.008,1.111,-320.374,-42.175,262.634
-0.503,4.000,0.961,-248.291,9.705,181.702
-0.159,4.000,0.741,-131.714,65.857,82.336
0.282,4.000,0.766,-18.494,108.521,-8.423
0.573,3.465,0.797,75.012,120.544,-81.299
0.688,2.021,0.676,165.894,101.746,-144.348
0.674,0.184,0.675,254.028,62.500,-205.444
0.318,-1.986,0.460,319.214,17.151,-257.874
-0.261,-3.578,0.196,322.754,-12.573,-287.476
-0.930,-4.000,0.016,233.704,-23.315,-264.282
-1.274,-3.972,0.245,86.365,-33.203,-165.833
-1.291,-3.183,0.654,-54.626,-53.040,-10.620
-1.150,-2.126,0.830,-142.822,-77.637,143.921
-1.183,-0.719,0.985,-198.303,-94.666,256.470
-1.203,0.849,0.968,-256.470,-101.624,314.514
-0.755,2.192,1.260,-286.499,-84.656,297.363
-0.446,3.182,1.371,-222.412,-44.800,197.266
-0.339,3.941,1.201,-104.126,-6.775,58.960
-0.349,4.000,1.125,-3.174,23.987,-56.519
-0.411,3.575,1.144,74.158,46.753,-126.404
-0.355,1.952,0.859,156.067,59.509,-165.283
-0.074,-0.278,0.520,234.619,74.829,-202.515
-0.097,-2.149,0.439,261.841,91.492,-242.432
-0.364,-3.329,0.501,207.397,91.187,-261.536
-0.680,-3.558,0.558,102.783,70.496,-234.436
-0.958,-3.311,0.614,11.963,36.438,-145.447
-0.890,-2.957,0.643,-45.776,-0.244,-8.484
-0.442,-2.408,0.752,-89.722,-33.386,130.737
-0.366,-1.152,0.905,-164.124,-65.613,239.868
-0.465,0.647,0.943,-247.437,-93.140,296.326
-0.151,2.125,1.017,-273.315,-96.924,282.227
-0.022,2.865,1.025,-184.692,-67.139,191.467
-0.064,3.075,0.994,-49.683,-26.001,57.861
-0.251,2.935,1.120,43.030,4.272,-60.059
-0.482,2.416,1.048,106.140,22.217,-133.545
-0.624,1.114,0.795,165.894,37.537,-172.363
-0.607,-0.986,0.513,235.291,64.758,-202.637
-0.407,-2.746,0.486,260.254,97.839,-229.309
-0.328,-3.553,0.574,172.607,105.896,-221.313
-0.191,-3.284,0.717,11.169,77.515,-152.100
-0.249,-2.373,0.794,-112.732,32.227,-38.208
-0.183,-1.563,0.791,-148.682,-10.437,78.308
-0.230,-0.770,1.081,-144.775,-46.814,168.335
-0.409,0.252,1.251,-150.879,-88.013,224.792
-0.502,1.193,1.246,-153.748,-118.530,237.610
-0.609,1.855,1.129,-118.591,-109.314,197.937
-0.701,2.155,0.838,-50.842,-62.134,114.746
-0.526,2.089,0.677,1.038,-1.404,19.653
-0.272,1.753,0.769,25.696,52.368,-57.556
-0.086,1.187,0.869,50.842,85.815,-107.544
0.058,0.358,0.905,86.426,95.520,-132.019
0.077,-0.560,0.958,106.934,88.928,-136.230
0.024,-1.124,1.133,78.979,65.674,-122.131
-0.079,-1.194,1.289,21.362,26.733,-90.820
-0.239,-0.993,1.272,-11.536,-10.864,-50.110
-0.407,-0.899,1.201,-11.780,-31.494,-10.071
-0.520,-0.863,1.117,-9.705,-36.011,22.949
-0.516,-0.765,1.162,-19.592,-31.677,45.044
-0.525,-0.566,1.175,-34.851,-22.156,55.237
-0.495,-0.289,1.140,-48.340,-9.399,56.702
-0.423,-0.024,1.068,-55.664,4.761,54.199
-0.341,0.239,0.993,-55.786,18.799,49.500
-0.244,0.382,0.933,-47.302,31.311,43.335
-0.146,0.439,0.931,-32.288,40.100,37.048
-0.074,0.404,0.939,-13.245,42.969,31.250
-0.036,0.320,0.935,6.592,39.856,24.902
-0.021,0.209,0.903,25.757,33.936,17.578
-0.041,0.116,0.882,38.086,27.954,10.864
-0.062,0.008,0.883,41.748,22.766,6.470
-0.067,-0.045,0.859,39.246,18.921,4.578
-0.069,-0.073,0.865,34.729,17.700,4.700
-0.063,-0.094,0.892,29.846,18.005,6.409
-0.059,-0.101,0.919,25.940,17.578,8.972
-0.078,-0.084,0.933,22.095,15.686,12.390
-0.099,-0.055,0.966,16.907,12.695,16.846
-0.120,-0.039,0.988,12.634,9.094,21.545
-0.127,-0.024,1.003,9.766,5.188,24.475
-0.127,-0.008,1.023,8.057,1.587,23.804
-0.131,-0.006,1.025,8.423,-1.221,19.348
-0.133,-0.012,1.030,9.827,-3.113,13.184
-0.127,-0.019,1.035,11.047,-4.456,6.531
-0.125,-0.025,1.032,11.475,-5.493,0.549
-0.126,-0.040,1.043,11.475,-6.409,-3.479
-0.125,-0.047,1.053,11.414,-7.568,-5.981
-0.131,-0.051,1.056,11.841,-8.362,-7.629
-0.145,-0.057,1.049,12.817,-8.057,-8.179
-0.156,-0.064,1.051,13.733,-7.141,-7.446

0.537,-1.852,1.256,146.301,-6.042,-215.271
0.282,-2.291,1.458,167.908,-40.955,-258.789
-0.098,-2.513,1.421,172.913,-82.825,-277.283
-0.634,-2.519,1.234,160.461,-117.554,-255.127
-1.148,-2.355,0.994,123.840,-131.592,-180.481
-1.511,-2.146,0.767,60.791,-122.131,-61.829
-1.686,-1.813,0.624,-18.188,-90.942,72.571
-1.604,-1.397,0.625,-97.168,-48.157,195.190
-1.477,-0.785,0.802,-173.523,-6.287,290.466
-1.405,-0.117,0.973,-239.014,24.475,354.797
-1.284,0.601,1.005,-278.259,43.457,384.583
-1.078,1.300,0.963,-299.744,54.321,381.775
-0.756,1.955,0.899,-306.946,62.317,346.558
-0.326,2.603,0.682,-280.457,71.533,281.555
-0.231,3.155,0.406,-216.309,86.426,205.139
-0.301,3.679,0.243,-152.771,100.403,134.094
-0.337,3.747,0.210,-91.248,105.774,72.571
-0.234,3.464,0.161,-15.747,102.844,14.587
-0.062,2.934,0.146,61.157,93.567,-44.800
0.060,2.411,0.155,130.859,76.416,-107.727
0.157,1.735,0.169,194.702,52.673,-169.983
0.317,0.792,0.196,252.197,23.010,-229.370
0.457,-0.430,0.237,296.570,-9.399,-287.537
0.528,-1.994,0.229,318.726,-32.715,-347.656
0.467,-3.149,0.198,294.006,-44.495,-414.734
0.325,-3.693,0.408,211.853,-63.171,-468.201
-0.145,-3.801,0.778,79.468,-98.938,-464.783
-0.800,-3.440,1.004,-43.152,-151.184,-393.311
-1.464,-2.959,1.038,-116.272,-192.810,-263.550
-2.006,-2.509,0.985,-135.803,-195.190,-104.370
-2.203,-2.066,0.927,-125.854,-158.081,55.847
-1.989,-1.601,0.924,-119.446,-98.755,201.904
-1.683,-1.078,1.054,-139.771,-37.415,321.350
-1.461,-0.209,1.220,-182.922,8.423,403.198
-1.220,0.827,1.199,-233.398,31.921,443.298
-0.908,1.823,1.178,-269.836,43.457,434.265
-0.535,2.578,1.161,-263.794,55.420,369.507
-0.369,3.184,0.752,-199.463,68.176,251.892
-0.096,3.500,0.174,-110.474,88.013,111.938
0.088,3.468,0.019,-29.053,119.690,-14.282
0.251,3.012,0.273,47.974,147.888,-113.098
0.350,2.045,0.449,128.479,152.710,-186.768
0.384,0.716,0.642,208.801,129.150,-243.225
0.332,-0.762,0.814,284.790,81.177,-296.143
0.352,-1.954,0.822,343.323,21.423,-353.271
0.092,-2.868,0.515,355.591,-12.939,-395.691
-0.471,-3.086,0.353,275.513,-24.475,-395.569
-0.804,-2.881,0.657,121.948,-49.011,-320.923
-0.091,-2.516,0.974,-22.888,-98.389,-184.448
-0.912,-1.597,0.720,-56.091,-129.700,-26.978
-1.062,-0.655,0.511,-104.919,-156.128,125.244
-1.071,0.194,0.795,-186.890,-162.842,269.287
-1.138,1.180,1.078,-264.038,-153.015,369.507
-0.969,2.182,1.390,-291.565,-138.550,405.640
-0.729,2.485,1.673,-246.155,-117.920,362.488
-0.729,2.515,1.307,-105.225,-82.581,233.337
-0.541,2.324,0.716,41.870,-32.104,71.106
-0.308,1.526,0.529,127.502,31.921,-69.275
-0.315,0.518,0.413,185.547,96.619,-173.340
-0.312,-0.697,0.630,216.125,142.273,-245.361
-0.210,-1.881,0.870,217.102,156.006,-301.819
-0.199,-2.622,0.781,182.312,143.921,-344.971
-0.201,-2.928,0.660,104.675,120.422,-350.464
-0.406,-2.674,0.594,-3.845,89.417,-294.861
-0.260,-1.865,0.870,-132.568,41.870,-180.481
-0.286,-0.687,0.889,-206.177,-0.305,-17.700
-0.500,0.487,1.151,-211.975,-18.860,162.109
-0.524,1.385,1.219,-202.026,-44.800,304.687
-0.370,1.957,1.342,-182.251,-66.895,381.653
-0.147,2.054,1.472,-137.695,-81.970,372.437
-0.250,1.711,1.079,-43.640,-84.595,268.433
-0.244,1.556,0.887,85.266,-62.622,99.731
-0.218,1.240,0.625,163.330,-28.625,-67.932
-0.320,0.478,0.500,185.181,14.893,-188.965
-0.514,-0.647,0.498,195.435,69.153,-261.047
-0.487,-1.891,0.649,189.148,116.943,-307.129
-0.313,-2.765,0.796,137.634,141.418,-327.942
-0.344,-3.192,0.771,21.057,134.521,-297.119
0.207,-3.045,1.094,-124.878,91.309,-225.525
-0.271,-1.917,1.364,-183.411,39.551,-127.258
-0.933,-0.720,1.382,-151.367,-8.301,-7.568
-1.051,0.148,0.918,-103.516,-55.847,126.953
-1.010,1.096,1.010,-110.535,-82.764,267.578
-0.708,2.020,1.232,-139.893,-96.191,373.230
-0.315,2.537,1.367,-137.390,-94.543,416.016
-0.354,2.454,1.096,-85.266,-73.792,375.977
-0.451,2.228,0.587,18.677,-33.203,258.301
-0.354,1.763,0.244,123.474,20.020,115.356
-0.150,0.922,0.140,153.564,76.599,-11.536
0.017,-0.033,0.182,141.296,124.756,-118.286
0.122,-0.917,0.350,129.089,156.616,-204.651
0.148,-1.728,0.797,106.140,170.105,-265.564
0.184,-2.038,1.182,38.696,153.809,-294.922
0.233,-1.952,1.132,-65.002,103.394,-278.320
0.145,-1.289,0.935,-162.231,39.368,-221.436
-0.264,-0.446,0.900,-185.730,2.991,-114.136
-0.600,0.326,0.973,-170.044,-16.907,14.343
-0.598,0.632,0.962,-136.414,-39.063,128.540
-0.354,0.656,1.138,-99.854,-59.021,202.087
-0.121,0.464,1.327,-47.791,-75.439,221.252
-0.085,0.067,1.464,6.409,-88.867,188.782
-0.233,-0.340,1.390,50.842,-94.360,115.906
-0.446,-0.344,1.453,75.989,-82.214,25.208
-0.634,-0.171,1.268,72.876,-57.190,-50.049
-0.724,0.061,0.990,44.983,-25.574,-89.844
-0.697,0.316,0.906,7.385,14.038,-93.994
-0.598,0.496,0.969,-22.949,53.894,-71.411
-0.461,0.502,1.076,-35.278,81.604,-34.851
-0.309,0.377,1.125,-28.564,92.773,1.465
-0.163,0.180,1.094,-11.841,90.332,29.480
-0.053,-0.005,1.054,3.296,80.261,44.250
0.013,-0.125,0.996,14.954,67.200,46.875
0.037,-0.189,0.958,24.536,53.345,41.748
0.027,-0.194,0.924,29.663,39.856,34.607
-0.008,-0.143,0.869,28.748,27.466,29.846
-0.046,-0.087,0.820,21.118,16.663,28.625
-0.050,-0.024,0.786,10.132,8.728,29.175
-0.036,0.037,0.773,0.183,3.906,29.663
-0.030,0.081,0.791,-6.958,2.136,28.076

0.204,-2.463,1.209,186.462,-14.282,-349.854
-0.045,-2.669,1.029,205.811,-41.443,-422.668
-0.572,-2.465,0.871,185.974,-48.401,-457.581
-1.292,-2.031,0.744,126.343,-35.339,-422.791
-1.361,-1.624,0.839,53.162,-8.301,-308.289
-1.459,-1.130,1.153,-4.211,20.935,-137.939
-1.529,-0.693,1.341,-32.410,33.081,49.255
-1.199,-0.567,0.982,-53.406,31.189,231.201
-1.082,-0.086,0.935,-115.051,30.396,376.038
-0.935,0.575,0.967,-203.857,26.306,463.562
-0.771,1.215,0.873,-289.062,23.437,494.141
-0.404,1.846,0.895,-340.149,27.039,469.238
-0.076,2.612,0.727,-321.533,31.616,390.808
0.128,3.269,0.470,-221.497,33.508,287.354
0.054,3.560,0.401,-78.003,31.860,188.232
-0.128,3.272,0.503,54.382,24.780,101.563
-0.132,2.484,0.397,147.888,13.123,18.860
-0.052,1.637,0.239,201.233,10.559,-64.697
0.021,0.861,0.277,218.140,21.973,-144.043
0.163,0.124,0.515,208.069,36.072,-212.585
0.299,-0.564,0.677,191.956,41.443,-269.043
0.361,-1.259,0.700,174.194,37.231,-311.951
0.304,-1.906,0.771,145.386,25.330,-338.074
0.138,-2.329,1.045,98.267,3.174,-342.407
-0.221,-2.486,1.264,42.480,-33.936,-315.552
-0.637,-2.470,1.362,-7.996,-79.407,-249.634
-1.145,-2.196,1.318,-45.044,-115.662,-150.513
-1.426,-1.730,1.249,-72.632,-129.272,-28.381
-1.397,-1.202,1.112,-98.511,-116.821,100.098
-1.268,-0.591,1.100,-128.357,-82.397,216.370
-1.176,0.136,1.125,-163.086,-43.152,304.382
-1.052,1.036,1.171,-204.407,-13.550,357.422
-0.859,1.916,1.225,-242.432,6.104,372.620
-0.537,2.392,1.082,-249.451,24.780,338.501
-0.214,2.578,0.897,-194.153,49.438,242.187
0.077,2.632,0.505,-82.336,75.073,104.248
0.177,2.418,0.380,41.382,97.778,-29.419
0.026,1.836,0.513,138.123,113.220,-133.057
-0.067,0.946,0.570,204.102,112.366,-211.792
-0.019,-0.111,0.606,249.695,100.220,-276.733
0.088,-1.220,0.619,282.288,87.463,-329.956
0.149,-2.284,0.505,287.109,81.787,-366.455
0.087,-3.031,0.393,234.802,77.576,-374.939
-0.088,-3.205,0.515,117.310,58.594,-333.740
-0.346,-2.729,0.879,-29.175,12.329,-234.985
-0.665,-1.803,0.934,-127.625,-51.453,-98.633
-0.958,-0.801,0.962,-145.752,-95.459,66.589
-0.946,-0.019,1.083,-158.508,-125.305,222.046
-0.913,0.806,1.115,-168.213,-142.273,339.600
-0.879,1.759,1.361,-192.627,-144.043,410.339
-0.764,2.420,1.642,-204.163,-134.888,425.842
-0.800,2.578,1.457,-159.790,-111.816,363.403
-0.714,2.388,0.812,-54.382,-65.857,221.924
-0.347,2.151,0.332,61.462,6.104,46.570
-0.216,1.647,0.445,135.437,90.881,-105.164
-0.247,0.712,0.499,186.523,154.419,-212.402
-0.180,-0.430,0.666,227.234,186.951,-285.706
-0.039,-1.632,0.888,250.305,195.312,-339.539
0.102,-2.580,0.774,236.694,184.631,-376.587
0.143,-3.011,0.517,158.325,159.851,-378.784
0.096,-2.775,0.329,25.879,120.667,-316.895
0.452,-2.249,0.885,-122.559,62.317,-197.937
-0.239,-0.859,1.004,-175.964,-0.671,-54.077
-0.723,0.107,0.934,-159.546,-55.481,106.995
-0.655,1.025,0.898,-164.978,-105.713,256.409
-0.422,1.881,1.401,-191.406,-134.399,362.122
-0.258,2.174,1.688,-172.302,-146.851,405.640
-0.482,1.703,1.388,-95.520,-148.254,369.324
-0.580,1.203,0.949,22.461,-130.493,249.939
-0.398,0.845,0.611,135.620,-86.365,89.966
-0.332,0.149,0.524,191.711,-16.113,-54.688
-0.335,-0.609,0.519,205.505,59.326,-165.527
-0.240,-1.382,0.617,196.045,121.582,-242.432
-0.134,-1.872,0.789,148.010,160.522,-286.621
-0.086,-1.891,0.883,44.250,166.809,-290.222
-0.117,-1.479,0.868,-67.932,140.320,-240.784
-0.187,-0.691,0.994,-140.686,97.595,-134.949
-0.214,0.035,1.280,-166.870,46.326,3.479
-0.282,0.751,1.142,-144.165,-2.747,145.081
-0.248,1.428,1.239,-126.648,-41.382,264.648
0.018,1.897,1.471,-112.610,-73.669,336.792
0.046,1.833,1.433,-67.139,-93.994,345.032
-0.252,1.221,0.962,4.211,-97.534,277.588
-0.202,0.695,0.549,98.511,-74.890,145.691
-0.089,0.183,0.450,167.053,-24.597,-5.676
-0.109,-0.452,0.459,178.467,36.743,-131.836
-0.132,-1.057,0.626,162.354,90.393,-222.900
-0.057,-1.444,0.915,118.896,120.972,-280.212
-0.078,-1.517,1.040,44.739,122.009,-300.171
-0.169,-1.332,0.938,-39.490,97.717,-272.095
-0.304,-0.943,0.815,-98.022,62.988,-193.359
-0.312,-0.508,1.026,-136.841,26.184,-84.656
-0.217,-0.115,1.041,-127.075,-5.249,28.503
-0.335,0.289,1.030,-101.563,-27.832,134.766
-0.341,0.621,1.186,-98.572,-49.866,211.975
-0.223,0.844,1.330,-87.891,-68.726,246.521
-0.120,0.804,1.354,-59.448,-77.454,236.450
-0.163,0.562,1.139,-12.085,-71.655,182.800
-0.239,0.358,0.939,38.147,-47.485,100.098
-0.268,0.194,0.911,71.167,-11.230,12.390
-0.287,0.096,0.878,76.599,24.048,-59.875
-0.262,-0.005,0.884,68.787,51.941,-106.384
-0.230,-0.137,0.868,57.800,70.007,-127.380
-0.163,-0.234,0.873,41.870,78.735,-128.540
-0.118,-0.292,0.887,23.193,77.881,-112.488
-0.076,-0.304,0.930,6.592,67.993,-82.703
-0.030,-0.282,0.995,-1.404,50.720,-45.837
-0.009,-0.250,1.048,-0.671,28.809,-8.118
-0.011,-0.270,1.066,4.639,5.737,25.391
-0.048,-0.284,1.043,10.742,-13.916,50.049
-0.107,-0.254,1.042,12.634,-29.053,64.392
-0.167,-0.219,1.048,7.935,-39.185,69.519
-0.201,-0.179,1.042,-0.244,-43.213,66.406
-0.214,-0.105,1.042,-10.254,-40.894,57.617
-0.237,-0.024,1.060,-21.179,-33.447,46.814
-0.257,0.093,1.054,-29.297,-22.705,35.583
-0.278,0.209,1.055,-31.860,-10.315,25.513
-0.270,0.273,1.055,-30.396,0.977,18.433
-0.242,0.294,1.059,-23.743,10.986,13.672

0.098,-1.673,1.680,164.612,-63.904,-248.474
-0.085,-2.159,1.569,206.116,-98.511,-342.834
-0.584,-2.257,1.144,220.520,-113.403,-414.429
-1.331,-1.947,0.709,191.101,-90.698,-435.242
-2.056,-1.426,0.484,115.723,-32.349,-377.136
-2.208,-0.822,0.719,12.573,41.748,-233.215
-1.698,-0.511,1.132,-68.359,107.971,-37.170
-1.142,-0.381,1.199,-87.036,145.996,157.593
-0.761,-0.250,1.071,-81.909,152.832,317.810
-0.695,0.184,0.863,-101.807,136.047,427.734
-0.667,0.734,0.767,-145.752,108.948,491.821
-0.444,1.279,0.779,-188.660,83.313,516.663
-0.337,1.737,0.636,-208.618,62.378,500.488
-0.327,2.416,0.583,-191.345,44.739,439.880
-0.165,3.071,0.535,-125.244,26.611,350.159
-0.058,3.403,0.409,-35.400,10.010,254.089
-0.015,3.160,0.281,56.946,3.235,158.752
-0.057,2.607,0.103,135.925,12.268,60.730
-0.135,2.078,0.096,188.049,34.912,-40.771
-0.125,1.676,0.269,209.351,58.411,-136.353
0.031,1.187,0.363,210.144,70.923,-213.623
0.243,0.553,0.449,200.623,68.420,-270.386
0.396,-0.201,0.493,189.636,51.697,-313.354
0.492,-1.048,0.495,182.495,26.184,-350.464
0.493,-1.950,0.519,169.495,0.244,-381.409
0.305,-2.767,0.511,138.062,-25.818,-405.579
-0.035,-3.154,0.559,72.388,-54.810,-414.490
-0.607,-3.068,0.818,-18.799,-88.135,-387.390
-1.195,-2.570,1.175,-104.248,-125.610,-307.007
-1.623,-1.791,1.385,-151.733,-158.386,-172.485
-1.762,-1.149,1.440,-161.499,-169.861,0.244
-1.668,-0.717,1.381,-147.034,-150.574,175.110
-1.498,-0.263,1.404,-132.629,-108.215,314.148
-1.474,0.240,1.349,-129.028,-56.580,399.353
-1.448,0.740,1.349,-137.451,-4.578,432.190
-1.299,1.283,1.290,-155.396,41.138,418.213
-0.947,1.857,1.134,-190.002,77.637,367.004
-0.421,2.331,1.026,-218.872,108.398,283.752
0.005,2.610,0.753,-209.351,133.606,174.072
0.038,2.553,0.415,-136.719,153.870,60.303
0.061,2.472,0.523,-10.620,168.091,-44.861
0.072,1.946,0.587,89.661,164.978,-126.953
0.101,1.171,0.472,159.546,147.461,-191.162
0.146,0.262,0.473,218.872,124.695,-245.789
0.199,-0.677,0.623,263.245,96.741,-291.199
0.261,-1.520,0.600,291.687,65.674,-325.500
0.220,-2.200,0.333,281.494,41.565,-344.360
0.150,-2.656,0.146,214.661,24.597,-340.271
0.157,-2.650,0.434,89.905,4.456,-302.856
-0.027,-2.182,0.671,-39.490,-29.358,-228.821
-0.514,-1.326,0.785,-115.601,-62.744,-109.985
-0.847,-0.493,0.911,-160.522,-90.820,40.649
-0.930,0.137,0.991,-185.181,-112.854,193.237
-0.878,0.720,1.119,-199.951,-123.901,316.833
-0.804,1.354,1.285,-211.487,-124.268,392.029
-0.756,1.879,1.520,-209.961,-117.493,414.551
-0.676,2.118,1.588,-175.110,-106.445,378.235
-0.193,2.196,1.366,-89.783,-88.440,279.602
-0.189,1.663,1.030,14.526,-54.932,146.362
-0.431,1.018,0.491,98.938,-6.653,10.010
-0.365,0.638,0.709,187.561,50.171,-122.375
-0.301,-0.162,0.696,228.394,92.712,-215.393
-0.200,-1.119,0.651,223.755,120.483,-273.437
-0.027,-1.705,0.721,190.247,135.925,-314.575
0.151,-1.881,0.743,121.216,133.423,-328.796
0.129,-1.725,0.657,31.677,112.732,-300.232
-0.023,-1.319,0.761,-51.941,78.186,-220.276
-0.175,-0.695,0.903,-107.788,33.264,-100.403
-0.223,-0.255,1.093,-125.549,-15.808,32.471
-0.312,0.216,1.041,-106.018,-57.800,157.593
-0.376,0.749,1.206,-107.178,-93.018,256.958
-0.319,1.227,1.416,-115.601,-121.826,317.871
-0.293,1.524,1.603,-111.084,-138.367,331.238
-0.431,1.404,1.397,-70.496,-139.954,286.926
-0.604,1.122,0.947,7.019,-118.469,182.922
-0.477,1.004,0.798,93.018,-66.406,46.631
-0.394,0.741,0.741,135.925,0.977,-72.083
-0.391,0.283,0.734,144.531,63.721,-152.405
-0.323,-0.330,0.811,150.391,110.168,-203.369
-0.176,-1.045,0.953,146.667,134.949,-235.657
0.010,-1.540,1.091,128.296,136.780,-254.883
0.094,-1.731,1.121,85.510,114.075,-252.686
-0.044,-1.582,0.970,24.963,72.876,-214.722
-0.239,-1.190,0.861,-30.212,27.893,-136.230
-0.318,-0.566,0.919,-74.219,-11.963,-30.884
-0.298,-0.024,0.899,-98.511,-43.640,81.360
-0.402,0.531,0.894,-112.732,-61.768,186.279
-0.444,1.145,1.000,-133.789,-70.007,260.620
-0.289,1.701,1.159,-143.005,-74.036,299.194
-0.030,1.999,1.152,-126.526,-71.228,298.950
-0.185,1.786,0.977,-80.444,-59.326,252.563
-0.408,1.272,0.643,2.441,-38.269,159.912
-0.312,0.838,0.550,94.177,-10.559,38.086
-0.160,0.270,0.633,161.560,18.494,-78.735
-0.081,-0.533,0.599,199.219,48.828,-168.091
-0.064,-1.307,0.740,207.764,78.918,-235.657
-0.056,-1.749,1.015,174.927,96.191,-288.086
-0.169,-1.821,0.999,100.952,91.431,-315.796
-0.438,-1.600,0.776,12.268,70.068,-302.734
-0.377,-1.261,0.549,-69.092,45.532,-239.075
-0.548,-0.219,1.116,-148.865,21.545,-144.775
-0.438,0.167,1.101,-152.100,0.427,-25.574
-0.549,0.808,1.030,-123.718,-13.550,99.243
-0.529,1.214,1.225,-118.103,-26.306,201.355
-0.322,1.329,1.372,-105.652,-39.368,263.855
-0.085,1.120,1.409,-69.763,-46.143,275.635
-0.046,0.667,1.177,-12.329,-42.542,235.107
-0.103,0.052,0.956,56.946,-25.696,152.954
-0.081,-0.458,0.797,116.089,1.282,50.110
-0.040,-0.783,0.858,141.663,33.264,-47.363
-0.083,-0.904,0.874,131.470,60.181,-122.559
-0.138,-0.875,0.852,88.379,75.073,-165.527
-0.188,-0.649,0.839,24.414,79.102,-174.805
-0.234,-0.290,0.857,-35.400,74.524,-150.085
-0.278,0.083,0.933,-73.425,63.477,-96.802
-0.256,0.356,1.074,-84.900,47.668,-26.001
-0.210,0.410,1.207,-69.397,28.381,41.626
-0.156,0.351,1.181,-35.034,7.324,89.966
-0.105,0.220,1.148,-0.427,-9.155,114.197

-0.455,1.321,0.984,-89.905,5.615,114.075
-0.268,1.375,1.015,-65.002,9.827,104.919
-0.037,1.372,1.019,-29.297,13.306,90.942
0.165,1.190,0.988,9.583,16.174,65.125
0.296,0.805,0.964,49.377,18.311,19.897
0.372,0.173,0.962,91.614,16.418,-46.448
0.329,-0.717,0.938,137.024,6.897,-133.301
0.332,-1.778,1.228,189.392,-12.024,-239.441
0.389,-2.598,1.498,234.070,-49.866,-362.732
0.234,-3.204,1.363,241.089,-98.083,-476.685
-0.448,-3.331,0.825,215.576,-103.821,-544.678
-1.328,-2.705,0.441,107.483,-81.055,-541.260
-2.235,-1.802,0.642,-14.221,-35.278,-438.477
-2.493,-0.954,0.936,-99.365,19.897,-248.596
-2.000,-0.338,1.357,-104.309,80.811,-10.315
-1.332,-0.219,1.246,-63.110,121.643,223.938
-0.973,-0.156,1.155,-31.433,134.888,407.166
-0.737,0.258,1.049,-30.762,122.437,517.273
-0.597,0.690,0.894,-68.298,95.581,566.162
-0.528,0.988,0.902,-134.583,71.838,560.425
-0.435,1.502,0.843,-175.781,55.908,495.850
-0.275,2.183,0.623,-161.133,41.443,388.245
-0.161,2.916,0.382,-100.403,32.410,273.865
-0.153,3.201,0.272,-29.175,34.607,176.758
-0.220,3.089,0.190,44.067,47.607,92.224
-0.140,2.548,0.184,111.877,65.369,13.245
-0.038,1.888,0.226,160.339,79.468,-63.660
0.094,1.308,0.342,188.049,84.167,-136.963
0.218,0.732,0.430,196.899,78.674,-199.646
0.324,0.053,0.414,201.294,66.284,-251.587
0.401,-0.772,0.383,201.233,52.368,-295.776
0.454,-1.630,0.364,182.922,39.917,-333.557
0.494,-2.381,0.464,136.353,24.231,-364.624
0.370,-2.839,0.705,67.749,-4.395,-381.042
-0.010,-2.715,0.942,-13.062,-53.223,-365.173
-0.381,-2.071,1.184,-110.718,-122.070,-300.964
-0.877,-1.270,1.147,-165.466,-175.842,-181.335
-1.390,-0.451,1.183,-167.114,-191.101,-23.132
-1.504,0.139,1.199,-152.771,-182.190,138.123
-1.364,0.571,1.312,-139.282,-156.372,275.024
-1.219,1.102,1.403,-129.333,-121.582,365.906
-1.143,1.574,1.563,-116.211,-83.313,407.043
-0.216,2.163,1.849,-99.182,-46.631,396.790
-0.071,1.983,1.516,-113.831,-16.296,351.624
-0.642,0.744,0.821,-127.197,17.395,271.667
-0.709,0.768,0.643,-52.673,60.791,124.878
-0.465,0.880,0.774,77.271,94.177,-39.246
-0.104,0.456,0.686,152.222,110.168,-165.100
0.129,-0.268,0.547,177.246,119.934,-245.667
0.195,-0.827,0.657,181.458,129.639,-295.410
0.152,-1.208,0.804,159.485,128.723,-322.815
0.070,-1.476,0.901,124.695,114.380,-330.505
-0.042,-1.477,0.899,89.722,91.309,-313.416
-0.025,-1.359,0.769,55.115,67.993,-264.771
-0.240,-0.859,0.880,12.085,48.889,-183.960
-0.079,-0.708,0.990,-32.959,24.231,-70.740
-0.271,-0.249,1.096,-57.373,-1.831,43.152
-0.361,0.218,1.016,-75.562,-28.381,153.015
-0.460,0.824,1.069,-115.662,-54.871,242.249
-0.436,1.371,1.272,-155.273,-77.209,294.189
-0.368,1.537,1.324,-147.705,-93.262,296.387
-0.331,1.207,1.125,-83.923,-97.412,238.586
-0.220,0.528,0.887,33.630,-82.031,124.573
-0.131,0.066,0.868,143.616,-43.884,-10.742
-0.204,-0.603,0.908,190.918,-1.953,-121.216
-0.263,-1.219,0.935,184.570,31.738,-196.533
-0.296,-1.510,0.940,144.348,53.955,-241.638
-0.334,-1.421,0.887,78.796,63.782,-247.742
-0.356,-1.040,0.831,2.380,64.026,-205.139
-0.383,-0.475,0.883,-65.063,59.265,-117.493
-0.320,0.097,1.067,-107.056,46.997,-5.798
-0.320,0.573,1.125,-115.906,24.963,103.516
-0.286,0.964,1.134,-104.004,-0.366,189.636
-0.196,1.234,1.172,-80.933,-23.376,239.075
-0.146,1.193,1.130,-45.532,-40.283,248.901
-0.201,0.962,0.974,-8.118,-47.607,218.994
-0.239,0.630,0.796,30.701,-40.894,151.794
-0.155,0.323,0.828,66.833,-19.775,61.829
-0.094,0.009,0.831,84.045,4.272,-28.992
-0.081,-0.349,0.863,83.862,26.733,-104.431
-0.056,-0.735,0.868,79.224,45.654,-160.400
0.041,-1.108,0.901,68.420,60.608,-197.266
0.073,-1.255,0.912,38.940,67.871,-210.876
0.003,-1.133,0.916,-11.719,64.270,-190.247
-0.160,-0.780,0.968,-70.618,50.293,-130.432
-0.232,-0.257,1.055,-118.652,28.137,-42.969
-0.322,0.261,1.206,-141.418,-0.732,46.814
-0.378,0.695,1.155,-131.836,-28.442,124.756
-0.308,1.075,1.291,-113.770,-51.941,179.138
-0.225,1.201,1.324,-72.754,-69.519,200.256
-0.269,0.977,1.122,-10.986,-76.050,186.340
-0.357,0.591,0.826,53.162,-66.101,138.672
-0.352,0.237,0.807,102.173,-38.147,66.772
-0.288,-0.237,0.819,122.253,-5.066,-12.024
-0.208,-0.658,0.861,116.516,26.794,-83.130
-0.136,-1.004,0.911,99.792,53.833,-140.076
-0.062,-1.157,0.956,74.158,71.472,-178.101
-0.080,-1.111,0.911,33.813,77.576,-187.378
-0.150,-0.871,0.899,-17.151,73.486,-160.339
-0.220,-0.500,1.000,-65.491,60.974,-97.717
-0.224,-0.071,1.143,-96.802,39.124,-14.893
-0.287,0.183,1.177,-95.703,11.230,63.110
-0.263,0.320,1.061,-69.580,-13.611,125.610
-0.166,0.469,1.138,-48.523,-33.203,162.476
-0.081,0.444,1.153,-18.311,-46.082,171.753
-0.078,0.272,1.166,16.479,-50.049,155.273
-0.130,0.059,1.113,49.866,-47.302,116.089
-0.186,-0.096,1.067,73.242,-37.537,63.049
-0.250,-0.166,1.069,81.299,-20.691,8.850
-0.325,-0.156,1.046,74.951,-0.671,-34.851
-0.377,-0.124,1.031,61.523,19.226,-61.829
-0.401,-0.099,1.002,48.096,36.316,-71.960
-0.396,-0.045,0.970,39.124,50.171,-67.871
-0.351,0.009,0.946,32.288,60.791,-52.795
-0.301,0.066,0.902,26.917,68.054,-29.480
-0.219,0.083,0.872,20.752,70.068,-3.418
-0.095,0.059,0.824,11.292,65.674,19.836
0.014,0.083,0.803,-1.343,57.007,34.729
0.101,0.174,0.776,-10.498,46.570,39.307

-0.312,1.307,1.064,-26.917,-33.508,123.474
-0.293,1.238,1.122,18.005,-31.006,111.572
-0.286,1.124,1.109,60.486,-24.048,84.778
-0.297,0.908,0.964,96.741,-9.399,42.297
-0.365,0.497,0.805,129.150,14.282,-13.000
-0.399,0.069,0.736,160.461,41.077,-80.994
-0.379,-0.458,0.856,190.125,62.622,-156.616
-0.333,-1.044,1.047,213.013,72.021,-239.258
-0.311,-1.652,1.092,221.619,66.406,-326.904
-0.323,-2.001,1.025,216.553,53.223,-416.321
-0.451,-1.959,0.936,201.050,45.532,-490.051
-0.813,-1.694,0.788,177.856,49.561,-522.461
-0.794,-1.795,0.459,152.161,64.331,-496.338
-0.788,-1.135,0.516,110.901,87.280,-419.739
-0.916,-0.625,1.147,72.998,106.628,-306.763
-0.880,-1.120,1.072,68.359,102.173,-156.921
-0.714,-1.338,0.827,57.251,96.008,-11.841
-0.485,-0.937,0.926,22.095,90.027,116.272
-0.473,-0.526,1.068,-27.893,73.669,236.023
-0.541,-0.259,0.850,-79.041,50.415,341.553
-0.548,0.259,0.576,-153.809,28.748,420.959
-0.403,1.075,0.490,-242.615,14.709,473.389
-0.138,1.771,0.645,-305.481,10.803,499.573
-0.092,2.357,0.849,-307.434,6.897,490.356
-0.132,2.722,0.803,-233.398,-4.272,439.575
-0.038,2.719,0.874,-104.126,-20.447,355.591
0.249,2.434,1.077,54.382,-40.771,247.314
0.289,1.873,0.945,200.317,-62.500,128.235
0.156,1.109,0.657,294.556,-66.711,13.489
0.042,0.423,0.560,318.665,-47.302,-89.355
-0.042,-0.024,0.777,284.912,-17.639,-177.246
-0.068,-0.470,0.874,233.582,3.784,-246.033
-0.097,-0.882,0.754,180.969,15.320,-296.143
-0.155,-1.188,0.577,121.948,26.917,-326.111
-0.230,-1.316,0.618,54.016,39.917,-331.055
-0.360,-1.344,0.778,-4.272,46.082,-307.373
-0.490,-1.278,0.982,-42.175,37.903,-252.808
-0.611,-1.176,1.094,-57.922,15.381,-167.847
-0.658,-1.076,1.112,-63.171,-11.841,-62.500
-0.664,-0.926,1.058,-67.749,-33.142,44.861
-0.573,-0.643,1.033,-78.430,-42.725,139.465
-0.545,-0.219,1.058,-95.459,-41.626,214.478
-0.643,0.370,1.139,-118.530,-37.659,269.287
-0.630,0.951,1.275,-147.339,-36.072,303.833
-0.410,1.222,1.401,-160.767,-31.616,306.702
-0.305,1.214,1.188,-133.606,-18.188,260.925
-0.157,1.135,1.050,-65.186,10.620,164.551
0.007,0.982,0.977,9.338,48.279,46.753
-0.020,0.743,0.979,69.275,78.491,-54.688
-0.076,0.492,0.977,112.793,93.018,-128.357
-0.096,0.179,0.982,135.986,94.604,-174.561
-0.067,-0.156,0.921,146.362,90.515,-201.599
0.000,-0.521,0.823,147.583,84.839,-213.562
0.052,-0.879,0.737,132.019,77.271,-210.449
0.089,-1.165,0.689,94.971,64.636,-190.796
0.088,-1.187,0.802,41.809,44.495,-152.588
-0.019,-1.039,0.937,-4.639,15.686,-94.971
-0.175,-0.785,1.038,-34.485,-17.822,-23.193
-0.309,-0.448,1.040,-48.523,-47.974,50.598
-0.450,-0.087,1.017,-57.556,-65.308,118.896
-0.569,0.236,1.056,-69.519,-67.200,172.974
-0.582,0.463,1.122,-82.458,-58.228,203.247
-0.446,0.520,1.161,-88.379,-42.297,202.148
-0.289,0.504,1.150,-76.782,-19.104,166.626
-0.185,0.514,1.145,-44.495,7.568,104.187
-0.067,0.512,1.167,-3.418,30.884,33.203
-0.047,0.419,1.140,32.654,43.518,-25.635
-0.050,0.329,1.133,63.721,46.204,-66.284
-0.057,0.168,1.109,90.454,42.419,-89.233
-0.046,-0.085,1.074,110.474,35.339,-98.450
-0.035,-0.410,0.967,120.239,28.992,-99.915
-0.017,-0.683,0.873,110.718,25.269,-95.703
-0.013,-0.881,0.812,80.200,22.949,-83.984
-0.026,-0.926,0.775,34.668,19.592,-63.293
-0.026,-0.740,0.819,-15.503,13.794,-31.921
-0.115,-0.390,0.908,-55.176,4.761,9.766
-0.225,-0.073,0.977,-78.308,-8.057,58.044
-0.238,0.191,0.990,-90.820,-21.973,99.792
-0.162,0.409,1.023,-92.041,-29.785,125.366
-0.095,0.551,1.054,-84.839,-30.029,131.287
-0.069,0.587,1.050,-67.200,-25.391,115.417
-0.020,0.590,1.037,-39.001,-19.226,77.148
0.024,0.550,1.017,-3.967,-12.695,24.963
0.022,0.430,1.003,30.762,-7.996,-26.917
0.003,0.266,1.028,60.303,-6.348,-70.313
-0.023,0.012,1.058,86.975,-8.606,-102.173
-0.037,-0.396,1.064,113.403,-13.306,-123.291
-0.054,-0.776,0.978,121.826,-16.479,-135.864
-0.145,-1.028,0.875,100.708,-16.235,-136.658
-0.285,-1.060,0.821,58.655,-13.123,-122.009
-0.400,-0.873,0.849,11.719,-9.705,-90.698
-0.423,-0.592,0.912,-26.611,-7.874,-42.358
-0.409,-0.327,0.994,-51.392,-7.568,16.235
-0.407,-0.075,1.025,-65.125,-8.850,75.806
-0.401,0.170,1.060,-73.975,-11.536,125.488
-0.362,0.434,1.117,-85.083,-17.578,159.546
-0.208,0.635,1.180,-94.299,-24.780,173.889
-0.075,0.663,1.209,-85.144,-25.818,160.034
-0.048,0.656,1.137,-42.969,-17.395,113.037
-0.027,0.535,1.017,11.658,-3.540,46.387
-0.031,0.298,0.974,59.326,12.024,-20.081
-0.064,0.020,1.000,91.736,26.306,-73.486
-0.094,-0.266,0.921,104.675,35.645,-108.643
-0.111,-0.477,0.846,91.858,41.626,-124.939
-0.107,-0.557,0.821,60.181,45.532,-122.253
-0.112,-0.514,0.869,20.935,44.250,-101.624
-0.135,-0.380,0.926,-9.644,35.339,-67.078
-0.132,-0.237,0.976,-26.794,19.226,-24.902
-0.080,-0.159,0.990,-29.724,0.671,15.503
-0.047,-0.134,0.968,-23.010,-15.137,47.119
-0.056,-0.150,0.975,-12.512,-26.306,66.406
-0.069,-0.178,1.050,-4.028,-33.997,73.059
-0.087,-0.186,1.068,2.136,-40.833,68.237
-0.119,-0.151,1.079,5.310,-45.166,55.664
-0.167,-0.119,1.080,6.226,-44.617,39.551
-0.217,-0.074,1.087,5.310,-39.368,23.621
-0.264,-0.028,1.083,5.737,-30.457,9.705
-0.297,0.002,1.078,7.324,-18.860,0.366
-0.302,-0.004,1.068,9.338,-6.714,-3.601

-0.501,-1.354,1.177,109.375,-49.316,-251.404
-0.783,-1.474,1.074,98.999,-48.523,-257.996
-1.011,-1.545,0.965,74.585,-34.790,-238.159
-1.128,-1.550,0.943,37.231,-10.437,-184.509
-1.160,-1.398,0.981,-3.113,17.822,-99.609
-1.028,-1.118,1.052,-37.659,44.006,3.906
-0.905,-0.783,1.048,-67.444,61.768,112.488
-0.812,-0.465,1.029,-93.079,70.496,212.219
-0.722,-0.145,1.007,-109.192,72.937,290.894
-0.726,0.215,0.986,-119.507,70.068,344.055
-0.722,0.664,0.942,-129.639,63.354,371.521
-0.554,1.129,0.836,-145.081,56.641,374.207
-0.390,1.597,0.718,-159.912,57.007,351.135
-0.213,2.191,0.597,-162.415,62.134,303.101
-0.081,2.797,0.633,-148.926,62.439,242.676
0.052,3.015,0.757,-104.370,52.185,173.584
0.160,2.861,0.765,-13.611,32.471,88.623
0.186,2.316,0.612,102.661,13.184,-10.803
0.090,1.632,0.484,202.942,7.080,-110.535
-0.065,0.923,0.429,262.146,12.085,-196.594
-0.183,0.156,0.454,277.588,16.785,-263.428
-0.208,-0.652,0.466,266.357,18.372,-312.561
-0.148,-1.372,0.536,234.375,16.541,-346.558
-0.159,-1.897,0.572,181.274,10.925,-359.009
-0.331,-2.206,0.651,110.718,1.160,-340.576
-0.510,-2.314,0.756,31.982,-17.212,-295.532
-0.620,-2.049,0.680,-41.016,-39.124,-227.051
-0.919,-1.628,0.885,-92.651,-43.945,-115.723
-0.973,-1.334,1.016,-125.366,-49.500,12.695
-0.923,-0.999,1.093,-136.169,-51.941,135.315
-0.841,-0.627,1.202,-136.902,-49.561,232.971
-0.840,-0.222,1.227,-138.184,-41.443,299.072
-0.907,0.253,1.183,-144.958,-26.184,334.412
-0.926,0.764,1.152,-157.288,-4.333,340.271
-0.842,1.250,1.119,-165.833,21.912,314.270
-0.509,1.678,0.986,-170.166,48.645,250.732
-0.060,2.096,0.907,-161.682,75.684,157.776
0.157,2.266,0.928,-109.802,98.206,54.871
0.251,2.173,0.998,-12.024,101.624,-44.434
0.236,1.677,0.784,101.807,85.815,-131.653
0.208,1.008,0.565,192.688,65.552,-204.041
0.181,0.295,0.574,247.925,46.387,-256.958
0.118,-0.493,0.702,277.283,24.048,-294.373
0.063,-1.232,0.741,286.011,1.709,-321.533
-0.159,-1.823,0.561,266.907,-13.245,-340.759
-0.549,-2.222,0.442,204.956,-15.625,-336.243
-0.582,-2.273,0.748,90.027,-18.188,-296.448
-0.665,-1.837,0.811,-11.780,-24.597,-212.402
-0.808,-1.197,0.998,-75.134,-23.499,-74.646
-0.862,-0.692,1.077,-118.591,-25.879,83.557
-0.850,-0.240,1.160,-160.583,-29.236,222.839
-0.863,0.289,1.223,-195.129,-32.043,312.134
-0.760,0.776,1.248,-219.788,-30.518,348.267
-0.481,1.038,1.176,-228.882,-20.447,327.759
-0.329,1.335,1.136,-198.547,1.221,253.906
-0.046,1.495,1.185,-119.690,23.865,150.574
0.144,1.306,1.122,-17.761,35.156,43.335
0.112,0.860,0.981,79.651,39.001,-53.345
-0.033,0.280,0.866,151.489,39.795,-122.498
-0.092,-0.339,0.857,180.237,38.391,-161.255
-0.131,-0.853,0.849,165.466,34.973,-178.650
-0.185,-1.127,0.744,117.493,34.973,-173.157
-0.096,-1.085,0.693,35.828,33.508,-147.278
-0.044,-0.740,0.692,-41.260,32.776,-97.900
-0.073,-0.212,0.863,-87.341,32.715,-26.794
-0.202,0.224,0.950,-98.755,23.682,51.331
-0.283,0.496,1.046,-97.900,6.042,121.216
-0.253,0.705,1.032,-94.299,-14.893,164.795
-0.161,0.765,1.011,-78.186,-29.663,174.744
-0.093,0.705,0.995,-46.570,-35.645,150.452
-0.009,0.606,0.987,-7.019,-35.950,98.938
0.044,0.494,1.063,31.006,-33.508,32.471
0.003,0.360,1.094,64.026,-31.799,-31.433
-0.089,0.160,1.051,93.872,-31.067,-81.299
-0.178,-0.121,0.990,118.896,-25.757,-114.441
-0.219,-0.544,0.951,130.493,-12.268,-131.470
-0.278,-0.980,0.943,128.662,5.737,-136.536
-0.344,-1.218,0.996,103.821,22.095,-128.235
-0.464,-1.284,1.054,63.293,28.259,-102.112
-0.378,-1.187,1.103,16.479,20.081,-66.345
-0.323,-0.981,1.059,-9.705,11.169,-20.081
-0.384,-0.715,1.079,-20.386,7.629,38.147
-0.404,-0.459,1.070,-33.386,0.732,96.252
-0.422,-0.201,1.024,-55.420,-6.958,144.104
-0.340,0.131,1.000,-85.938,-14.832,171.082
-0.213,0.565,1.025,-115.112,-18.250,174.683
-0.122,0.997,0.994,-129.150,-14.648,157.837
-0.133,1.376,0.977,-109.070,-5.798,128.296
-0.107,1.567,0.964,-58.105,2.808,91.309
-0.124,1.425,0.865,4.639,7.629,48.828
-0.134,1.055,0.766,58.105,10.620,4.883
-0.093,0.702,0.812,95.581,13.062,-38.025
-0.048,0.411,0.861,118.103,10.864,-74.646
-0.041,0.083,0.875,127.319,4.333,-101.929
-0.016,-0.254,0.876,125.366,-2.014,-121.582
-0.022,-0.566,0.873,118.835,-3.784,-134.277
-0.109,-0.885,0.892,106.567,-3.052,-137.085
-0.227,-1.188,0.887,90.454,-3.052,-129.761
-0.259,-1.375,0.889,60.608,-7.080,-115.845
-0.304,-1.319,0.859,14.526,-14.648,-94.604
-0.423,-1.040,0.933,-32.532,-20.813,-57.434
-0.571,-0.652,0.981,-67.078,-27.039,-6.104
-0.645,-0.271,1.028,-94.360,-33.203,51.941
-0.621,0.026,1.030,-114.563,-35.522,103.699
-0.504,0.243,1.014,-123.474,-29.907,136.475
-0.366,0.411,0.985,-117.615,-14.832,145.813
-0.237,0.515,1.002,-100.220,4.150,133.728
-0.121,0.502,1.030,-73.486,19.470,103.577
-0.020,0.415,1.091,-38.574,26.855,60.608
0.027,0.370,1.103,-1.404,25.574,14.587
-0.006,0.324,1.085,27.649,16.846,-21.057
-0.065,0.245,1.034,48.584,6.165,-41.199
-0.106,0.161,1.007,59.021,-1.526,-48.157
-0.129,0.091,1.001,61.218,-5.188,-46.997
-0.144,0.021,1.004,59.814,-6.775,-41.260
-0.150,-0.052,1.025,57.739,-8.240,-32.898
-0.165,-0.143,1.056,54.749,-10.803,-24.353
-0.185,-0.232,1.075,47.729,-14.465,-17.639
-0.207,-0.293,1.106,36.194,-17.700,-13.794

0.013,-1.853,1.355,196.838,-34.363,-279.236
-0.263,-2.086,1.307,201.965,-71.106,-313.049
-0.716,-2.044,1.041,184.326,-97.351,-315.979
-1.221,-1.793,0.760,141.602,-97.900,-271.118
-1.505,-1.442,0.615,74.158,-69.519,-172.180
-1.469,-1.088,0.670,-7.568,-22.644,-31.738
-1.243,-0.797,0.776,-81.665,24.231,121.277
-0.985,-0.510,0.875,-140.076,58.228,255.127
-0.883,-0.065,0.870,-184.143,74.341,350.952
-0.817,0.475,0.865,-221.558,75.928,408.813
-0.549,1.021,0.816,-252.686,69.397,431.702
-0.478,1.546,0.732,-267.517,63.843,419.556
-0.401,1.950,0.647,-257.202,61.829,374.023
-0.181,2.380,0.677,-213.440,54.688,300.049
0.059,2.660,0.693,-133.850,38.818,214.722
0.196,2.634,0.633,-32.837,19.043,131.042
0.143,2.264,0.474,67.078,6.470,50.964
0.058,1.829,0.423,139.893,7.019,-26.001
0.027,1.361,0.481,179.565,11.902,-99.426
0.035,0.794,0.528,195.984,11.902,-164.917
0.119,0.182,0.583,205.017,7.019,-223.145
0.149,-0.410,0.629,211.365,-0.305,-273.010
0.100,-1.013,0.671,210.022,-8.179,-310.791
0.053,-1.638,0.739,190.613,-17.090,-331.116
-0.043,-2.133,0.787,145.447,-26.733,-329.956
-0.322,-2.438,0.841,77.332,-40.344,-299.438
-0.416,-2.504,1.051,-15.259,-66.833,-241.150
-0.580,-2.177,0.968,-85.327,-97.107,-163.269
-1.011,-1.561,0.964,-107.178,-103.821,-54.321
-1.225,-0.953,1.064,-130.371,-98.816,70.557
-1.257,-0.461,1.104,-152.649,-84.167,189.514
-1.265,0.047,1.115,-167.236,-58.777,280.273
-1.151,0.569,1.149,-179.749,-28.748,336.731
-0.905,1.109,1.219,-194.641,-1.038,358.093
-0.643,1.443,1.222,-205.627,22.034,340.698
-0.417,1.548,1.008,-191.467,42.480,277.771
-0.045,1.789,0.915,-136.475,63.293,176.819
0.139,1.870,0.882,-53.162,78.857,65.247
0.096,1.656,0.892,34.241,83.618,-32.227
0.033,1.306,0.856,115.173,75.500,-112.915
0.005,0.860,0.776,171.692,59.998,-172.119
-0.010,0.245,0.729,204.224,46.509,-210.205
0.016,-0.475,0.667,218.994,39.429,-234.192
0.028,-1.088,0.720,205.017,37.537,-247.498
-0.076,-1.519,0.824,161.804,33.203,-242.432
-0.240,-1.624,0.839,101.013,20.813,-211.365
-0.427,-1.518,0.845,35.828,1.892,-152.161
-0.380,-1.243,0.825,-21.667,-20.691,-76.660
-0.487,-0.876,0.798,-48.584,-30.640,14.404
-0.624,-0.504,0.914,-74.585,-31.311,107.910
-0.685,-0.144,0.989,-104.187,-36.133,185.608
-0.690,0.292,1.045,-137.817,-42.725,237.671
-0.547,0.734,1.122,-172.180,-45.654,260.071
-0.379,1.023,1.172,-190.735,-40.833,248.108
-0.294,1.174,1.063,-165.771,-26.306,196.472
-0.178,1.183,0.990,-95.276,-3.601,116.516
-0.115,0.968,1.026,-7.324,22.278,29.480
-0.154,0.565,1.056,65.063,44.067,-47.974
-0.217,0.007,1.017,109.436,58.655,-108.032
-0.315,-0.498,1.001,127.930,73.425,-153.564
-0.432,-0.758,0.952,128.479,92.468,-184.875
-0.518,-0.893,0.789,104.614,112.732,-189.636
-0.510,-0.965,0.661,55.725,128.845,-157.898
-0.353,-0.892,0.748,-2.502,135.071,-88.989
-0.092,-0.733,0.990,-53.528,123.901,4.456
0.121,-0.585,1.133,-90.698,90.881,91.736
0.115,-0.428,0.961,-92.224,54.321,160.156
0.073,-0.055,0.995,-103.394,23.865,206.787
0.129,0.374,1.013,-126.160,-6.104,226.257
0.202,0.834,1.060,-142.944,-29.480,222.534
0.213,1.172,0.969,-134.460,-45.288,193.665
0.150,1.432,0.806,-91.187,-51.270,143.188
0.073,1.556,0.749,-23.865,-46.509,79.956
-0.002,1.481,0.760,42.114,-38.879,16.296
-0.054,1.165,0.805,91.370,-35.156,-38.818
-0.051,0.871,0.836,121.582,-35.950,-83.618
-0.035,0.479,0.871,144.043,-38.635,-114.380
-0.033,-0.076,0.941,161.011,-39.185,-134.094
-0.102,-0.633,0.968,170.349,-34.729,-148.621
-0.236,-1.071,1.007,150.085,-28.931,-154.053
-0.424,-1.330,0.986,102.112,-23.682,-143.433
-0.536,-1.255,0.952,41.321,-16.968,-113.037
-0.616,-1.003,0.977,-21.423,-8.057,-58.960
-0.617,-0.659,1.081,-71.716,-1.038,11.230
-0.593,-0.340,1.136,-102.783,1.404,85.266
-0.524,-0.012,1.162,-126.953,-0.305,148.132
-0.445,0.277,1.109,-146.423,-1.221,188.477
-0.312,0.633,1.103,-159.729,1.709,201.965
-0.165,0.853,1.043,-162.964,7.935,188.721
-0.052,0.986,0.894,-138.916,18.677,147.949
0.082,1.094,0.870,-91.064,31.433,90.515
0.188,1.062,0.931,-38.208,37.415,28.259
0.207,0.871,0.997,13.672,33.569,-32.043
0.167,0.716,1.000,63.293,20.630,-87.708
0.099,0.483,0.979,105.957,5.981,-129.456
0.004,0.167,0.928,142.395,-2.563,-156.250
-0.114,-0.112,0.918,159.729,-5.005,-165.588
-0.210,-0.330,0.943,147.400,-6.104,-153.320
-0.273,-0.456,0.949,115.845,-9.277,-121.704
-0.288,-0.505,0.935,78.064,-13.062,-78.247
-0.240,-0.498,0.960,40.710,-14.160,-32.104
-0.224,-0.431,1.028,12.817,-12.695,6.714
-0.194,-0.365,1.103,-3.967,-10.742,34.973
-0.175,-0.295,1.141,-14.709,-9.705,50.537
-0.156,-0.197,1.189,-20.996,-9.399,55.176
-0.172,-0.092,1.223,-22.034,-8.972,52.307
-0.190,-0.015,1.217,-20.630,-7.507,44.373
-0.211,0.049,1.183,-13.367,-3.235,32.776
-0.229,0.107,1.151,-4.456,2.991,21.118
-0.225,0.123,1.104,2.258,9.155,12.451
-0.194,0.123,1.080,7.080,15.198,6.226
-0.171,0.108,1.049,12.390,19.836,2.197
-0.144,0.075,1.023,18.127,22.583,0.061
-0.117,0.047,0.997,22.888,23.621,-1.404
-0.088,0.009,0.969,26.855,23.804,-2.380
-0.067,-0.003,0.966,28.564,23.132,-2.991
-0.048,-0.019,0.957,28.137,20.874,-2.930
-0.029,-0.034,0.950,25.696,16.602,-2.563
-0.016,-0.045,0.951,22.949,11.475,-2.319

-0.700,-1.699,0.922,240.356,-78.125,-337.891
-1.018,-1.718,0.747,224.121,-65.674,-323.608
-1.266,-1.682,0.669,187.683,-37.903,-266.846
-1.340,-1.600,0.692,136.780,-6.653,-166.077
-1.198,-1.605,0.713,80.383,18.982,-35.217
-0.885,-1.632,0.737,20.996,36.865,96.497
-0.649,-1.524,0.780,-39.673,45.959,205.017
-0.521,-1.253,0.820,-100.220,46.021,283.142
-0.562,-0.841,0.866,-157.043,37.720,337.219
-0.724,-0.313,0.906,-213.745,22.461,374.207
-0.899,0.348,0.850,-273.132,5.493,394.348
-0.903,1.084,0.720,-320.862,-3.479,392.517
-0.849,1.776,0.600,-331.238,3.784,362.000
-0.705,2.309,0.486,-290.344,27.710,304.810
-0.462,2.766,0.430,-218.445,58.167,236.267
-0.259,3.010,0.443,-130.676,84.229,169.983
-0.169,2.856,0.408,-32.593,98.389,109.009
-0.099,2.406,0.398,56.091,99.976,48.035
0.011,1.886,0.420,121.277,90.027,-17.639
0.120,1.434,0.458,162.842,70.557,-86.487
0.204,0.992,0.484,188.965,45.227,-152.954
0.280,0.521,0.506,208.862,18.066,-214.783
0.367,0.047,0.541,225.952,-7.202,-268.494
0.328,-0.609,0.588,238.342,-29.785,-312.256
0.231,-1.320,0.732,247.437,-50.781,-351.685
0.109,-1.901,0.840,246.460,-70.068,-387.573
-0.169,-2.421,0.860,208.923,-85.754,-401.062
-0.587,-2.695,0.869,130.127,-100.708,-370.789
-0.944,-2.631,1.006,16.663,-121.826,-294.067
-1.244,-2.098,0.876,-74.463,-133.911,-178.406
-1.536,-1.416,0.993,-122.253,-113.342,-21.851
-1.481,-0.997,1.105,-176.880,-82.947,135.803
-1.389,-0.600,1.184,-221.436,-44.617,259.705
-1.237,-0.139,1.217,-251.221,-5.920,334.106
-1.048,0.455,1.210,-273.010,27.954,366.455
-0.764,1.019,1.224,-293.762,57.190,365.906
-0.481,1.484,1.147,-302.490,81.238,332.214
-0.077,1.907,0.964,-277.832,100.586,268.127
0.234,2.333,0.821,-211.609,115.295,186.035
0.241,2.544,0.762,-123.169,120.483,100.159
0.235,2.317,0.735,-29.236,108.765,13.733
0.288,1.907,0.663,68.604,82.031,-73.975
0.295,1.359,0.593,152.100,50.720,-155.029
0.240,0.691,0.578,210.632,23.132,-219.177
0.163,-0.001,0.630,246.338,2.930,-266.602
0.021,-0.735,0.716,264.832,-10.559,-300.903
-0.121,-1.521,0.715,260.376,-17.822,-317.505
-0.402,-2.098,0.676,209.656,-21.240,-306.335
-0.561,-2.357,0.810,106.384,-28.992,-259.033
-0.555,-2.167,0.717,-3.723,-45.959,-186.218
-0.805,-1.556,0.664,-72.266,-46.753,-78.918
-0.969,-0.918,0.807,-133.545,-38.696,48.889
-1.022,-0.318,0.954,-177.734,-31.433,171.387
-0.987,0.347,1.013,-203.979,-25.146,266.663
-0.844,1.016,1.065,-225.464,-18.677,326.172
-0.529,1.602,1.116,-249.023,-10.132,346.130
-0.288,1.889,1.037,-254.395,0.793,317.749
-0.138,2.026,0.829,-201.111,19.348,240.173
-0.030,2.103,0.806,-97.473,42.236,130.127
0.044,1.833,0.842,14.099,57.007,14.526
0.061,1.376,0.832,110.352,58.044,-86.975
0.070,0.820,0.840,180.603,48.950,-164.734
0.051,0.133,0.839,225.403,34.973,-218.628
-0.005,-0.624,0.824,248.718,23.132,-252.991
-0.057,-1.266,0.852,246.887,16.174,-270.447
-0.244,-1.702,0.809,212.463,11.902,-263.489
-0.469,-1.879,0.768,135.742,5.493,-222.290
-0.348,-1.834,0.768,31.921,-9.399,-158.142
-0.418,-1.334,0.663,-28.015,-14.404,-67.078
-0.465,-0.771,0.840,-83.313,-12.085,45.288
-0.505,-0.267,0.977,-141.052,-20.813,153.320
-0.481,0.377,1.057,-193.787,-36.011,231.812
-0.273,1.118,1.146,-229.797,-48.462,270.935
-0.105,1.593,1.178,-236.084,-49.683,270.081
-0.178,1.796,1.030,-182.983,-37.781,223.755
-0.177,1.806,0.995,-78.979,-16.602,139.709
-0.142,1.430,1.000,33.020,5.310,36.194
-0.125,0.930,1.000,118.958,22.217,-67.383
-0.139,0.402,0.997,173.340,32.837,-151.306
-0.165,-0.162,1.041,203.064,40.100,-207.886
-0.234,-0.762,1.005,216.309,46.997,-240.112
-0.264,-1.230,0.864,207.275,53.589,-248.352
-0.284,-1.518,0.754,158.386,56.702,-222.412
-0.325,-1.647,0.765,70.129,49.438,-159.302
-0.073,-1.433,0.890,-29.114,24.475,-85.876
-0.155,-0.827,0.785,-66.895,4.333,1.099
-0.293,-0.295,0.936,-108.582,-11.902,97.778
-0.425,0.257,1.041,-147.766,-36.255,180.054
-0.400,0.941,1.093,-173.950,-58.411,232.544
-0.197,1.446,1.105,-179.199,-70.007,252.563
-0.206,1.587,1.000,-146.851,-64.514,234.375
-0.221,1.514,0.891,-69.885,-44.495,176.697
-0.157,1.291,0.910,20.203,-20.752,93.933
-0.124,1.001,0.984,88.989,-1.221,4.517
-0.169,0.649,0.973,134.277,10.864,-76.355
-0.186,0.218,0.933,163.086,18.250,-140.015
-0.150,-0.389,0.868,185.608,29.114,-186.157
-0.109,-1.018,0.823,195.557,46.570,-219.116
-0.087,-1.509,0.873,174.622,62.378,-233.154
-0.212,-1.784,0.880,118.469,63.538,-218.140
-0.305,-1.691,0.871,33.691,45.959,-169.250
-0.233,-1.360,1.068,-61.096,11.963,-106.445
-0.351,-0.785,0.865,-83.252,-12.512,-22.827
-0.522,-0.219,1.028,-108.765,-26.978,74.951
-0.546,0.303,1.075,-142.395,-48.645,161.743
-0.521,0.862,1.210,-165.283,-65.796,221.802
-0.422,1.224,1.142,-164.612,-72.388,247.437
-0.390,1.339,0.998,-128.052,-60.181,236.877
-0.412,1.170,0.895,-57.312,-28.992,190.002
-0.332,0.726,0.857,17.456,9.155,116.882
-0.163,0.327,0.872,62.683,45.654,33.508
-0.107,0.040,0.891,80.078,74.463,-43.091
-0.064,-0.107,0.891,77.942,91.187,-100.769
-0.046,-0.154,0.878,61.829,96.741,-131.409
-0.015,-0.061,0.918,33.264,91.370,-135.010
0.012,0.080,0.979,8.118,75.684,-112.488
0.021,0.175,1.016,-3.784,51.392,-69.397
0.033,0.157,1.027,-2.563,23.071,-19.531
0.060,0.063,1.034,5.676,-4.272,22.034

0.289,-1.637,1.173,224.365,-11.475,-318.359
0.111,-1.844,1.013,240.723,-47.485,-371.582
-0.232,-1.931,0.863,237.915,-70.740,-393.372
-0.747,-1.920,0.717,208.252,-81.604,-366.272
-1.207,-1.716,0.563,156.616,-79.895,-281.555
-1.360,-1.445,0.535,88.562,-65.979,-146.545
-1.200,-1.216,0.552,15.259,-45.288,12.634
-0.947,-1.134,0.634,-51.514,-22.461,163.208
-0.796,-0.852,0.774,-108.459,-5.554,277.100
-0.724,-0.351,0.868,-158.142,-1.282,350.891
-0.789,0.139,0.905,-204.407,-3.967,395.874
-0.844,0.716,0.953,-244.690,-8.606,418.762
-0.663,1.275,1.027,-278.015,-12.634,422.546
-0.626,1.900,1.171,-289.124,-11.292,399.658
-0.715,2.275,1.024,-261.719,-6.714,344.849
-0.567,2.481,0.888,-187.500,2.197,261.108
-0.323,2.477,0.687,-71.228,24.475,160.583
-0.274,2.151,0.503,39.368,62.439,62.256
-0.309,1.653,0.514,109.558,106.812,-26.367
-0.277,1.208,0.513,140.564,139.832,-105.225
-0.135,0.892,0.578,139.954,155.701,-167.114
0.048,0.582,0.679,131.042,156.250,-210.266
0.269,0.197,0.718,132.690,143.616,-238.464
0.490,-0.207,0.715,142.639,121.094,-256.104
0.648,-0.700,0.711,151.428,92.590,-263.916
0.713,-1.264,0.720,153.931,58.228,-266.174
0.676,-1.818,0.779,151.672,16.785,-268.555
0.569,-2.146,0.824,137.512,-32.471,-266.296
0.292,-2.256,0.842,101.990,-88.196,-244.263
-0.208,-2.175,0.783,48.584,-143.555,-190.430
-0.664,-1.822,0.787,-12.024,-189.514,-108.521
-0.955,-1.291,0.836,-71.289,-212.708,-10.986
-1.161,-0.692,0.897,-119.324,-204.468,88.318
-1.259,-0.181,1.005,-158.752,-167.908,174.561
-1.315,0.324,1.077,-189.514,-115.540,237.732
-1.290,0.925,1.122,-213.806,-60.364,276.367
-1.052,1.495,1.194,-236.389,-12.451,292.358
-0.734,1.822,1.180,-249.146,25.574,278.992
-0.405,1.963,1.035,-225.952,58.777,226.562
-0.019,1.935,0.837,-153.992,85.938,138.550
0.219,1.765,0.773,-51.575,105.347,36.377
0.276,1.358,0.813,51.025,113.098,-59.143
0.223,0.885,0.818,130.066,106.140,-139.465
0.168,0.360,0.849,175.781,88.379,-202.454
0.163,-0.217,0.862,199.951,64.331,-252.869
0.271,-0.690,0.911,213.379,40.100,-293.457
0.204,-1.120,0.922,219.543,20.081,-320.679
0.010,-1.494,0.830,206.909,5.249,-329.468
-0.314,-1.648,0.755,161.499,-6.531,-312.317
-0.639,-1.667,0.700,94.421,-19.226,-256.958
-0.772,-1.415,0.777,17.273,-34.180,-158.752
-0.648,-1.119,1.014,-60.730,-52.795,-36.133
-0.588,-0.771,0.956,-106.934,-65.796,84.839
-0.667,-0.301,1.068,-140.625,-65.002,186.157
-0.758,0.234,1.152,-173.645,-59.814,254.150
-0.831,0.724,1.137,-197.571,-51.086,291.016
-0.648,1.093,1.146,-208.618,-37.476,297.424
-0.408,1.223,1.098,-192.993,-17.212,265.991
-0.239,1.192,0.872,-133.057,10.864,194.702
0.015,1.021,0.820,-49.438,45.349,100.708
0.143,0.832,0.898,22.156,76.111,7.446
0.138,0.481,0.947,77.026,89.111,-68.420
0.174,0.058,1.006,110.718,85.083,-126.099
0.252,-0.403,1.042,130.005,71.777,-170.105
0.291,-0.808,1.002,134.888,55.603,-202.393
0.239,-1.018,0.981,117.920,38.818,-217.346
0.023,-1.056,0.952,78.125,19.653,-205.078
-0.325,-0.887,0.929,27.771,-1.587,-159.668
-0.509,-0.526,1.004,-11.658,-19.897,-84.717
-0.570,-0.202,1.077,-31.860,-32.654,8.789
-0.541,0.034,1.076,-45.532,-36.316,100.586
-0.530,0.267,1.154,-62.561,-30.090,173.279
-0.542,0.490,1.208,-79.102,-18.921,218.201
-0.490,0.689,1.234,-90.454,-5.676,232.178
-0.382,0.710,1.159,-92.896,11.536,213.928
-0.279,0.743,1.024,-77.576,36.804,161.682
-0.108,0.754,0.918,-50.476,66.101,88.379
0.081,0.707,0.918,-19.287,91.492,12.695
0.222,0.504,0.966,12.695,106.628,-53.040
0.315,0.152,0.920,47.058,108.582,-105.286
0.443,-0.234,0.957,71.655,99.854,-141.907
0.510,-0.630,1.076,81.299,81.238,-163.086
0.446,-0.894,1.149,82.642,51.453,-170.044
0.253,-0.928,1.094,72.449,14.160,-159.302
-0.019,-0.861,0.959,52.612,-20.447,-124.817
-0.212,-0.715,0.873,27.100,-44.800,-69.397
-0.290,-0.539,0.837,0.244,-56.213,-3.357
-0.364,-0.303,0.833,-27.893,-55.908,62.439
-0.422,-0.067,0.881,-58.533,-47.913,117.981
-0.437,0.223,0.933,-88.562,-37.903,154.480
-0.377,0.516,0.925,-109.192,-27.039,169.617
-0.233,0.796,0.959,-119.568,-13.977,164.429
-0.118,0.919,0.977,-109.192,-0.061,140.625
-0.060,0.957,0.932,-73.425,12.634,99.121
0.046,0.867,0.894,-24.719,21.423,46.936
0.137,0.673,0.910,21.729,24.170,-5.493
0.181,0.376,0.992,59.692,21.057,-51.697
0.171,0.094,1.006,89.417,12.146,-91.187
0.144,-0.215,0.968,108.948,2.136,-120.300
0.138,-0.517,0.960,114.380,-4.517,-138.062
0.093,-0.749,0.970,106.628,-9.094,-144.897
-0.010,-0.831,0.964,82.214,-15.076,-136.841
-0.160,-0.768,0.953,44.800,-22.949,-109.314
-0.294,-0.562,0.969,4.211,-30.579,-63.660
-0.343,-0.325,1.048,-27.039,-36.072,-9.094
-0.339,-0.151,1.073,-43.945,-38.269,42.603
-0.297,-0.096,1.097,-51.697,-37.170,82.703
-0.234,-0.042,1.150,-53.589,-33.447,103.088
-0.182,0.001,1.144,-47.974,-27.222,103.577
-0.122,0.063,1.178,-42.358,-18.494,89.905
-0.093,0.114,1.163,-34.424,-9.521,67.261
-0.095,0.161,1.134,-24.719,-2.014,41.626
-0.091,0.224,1.117,-14.221,3.845,18.860
-0.078,0.248,1.088,-3.601,7.996,2.319
-0.075,0.238,1.036,5.737,10.559,-6.775
-0.073,0.231,1.026,12.329,12.939,-10.437
-0.074,0.208,1.017,18.372,13.672,-10.437
-0.059,0.153,1.002,25.574,13.855,-9.888
-0.038,0.083,0.980,32.410,13.367,-10.315
