aX,aY,aZ,gX,gY,gZ
-0.632,0.408,2.369,-22.217,-67.993,-13.245
-0.793,0.501,2.420,7.263,-78.064,-21.118
-0.948,0.567,2.350,36.865,-85.510,-18.005
-0.937,0.601,2.247,54.138,-86.548,-3.296
-0.900,0.503,1.986,58.594,-82.581,15.686
-0.766,0.340,1.942,39.124,-70.984,28.564
-0.597,0.358,2.156,9.155,-54.932,27.222
-0.523,0.384,2.414,1.953,-46.265,13.000
-0.552,0.480,2.557,3.235,-49.805,-5.554
-0.723,0.424,2.329,20.874,-57.861,-21.179
-0.848,0.209,2.121,34.363,-57.068,-26.367
-0.901,0.196,1.968,24.902,-45.044,-19.531
-0.856,0.092,1.748,19.714,-20.874,-3.357
-0.683,-0.075,1.482,22.461,10.498,11.536
-0.503,-0.260,1.279,18.982,38.513,13.977
-0.441,-0.385,0.997,4.395,56.519,-2.197
-0.459,-0.511,0.863,-10.559,71.899,-28.076
-0.519,-0.536,0.749,-24.353,86.548,-51.819
-0.569,-0.501,0.658,-30.701,100.586,-63.843
-0.512,-0.492,0.492,-26.184,112.244,-62.561
-0.441,-0.519,0.241,-26.367,115.479,-54.688
-0.315,-0.513,0.163,-39.124,114.075,-50.232
-0.201,-0.432,0.288,-53.406,108.582,-52.124
-0.185,-0.378,0.312,-58.594,96.924,-59.998
-0.262,-0.365,0.284,-53.406,87.646,-71.594
-0.302,-0.297,0.394,-48.584,84.412,-83.435
-0.422,-0.221,0.505,-45.044,81.177,-89.722
-0.457,-0.146,0.681,-38.208,75.500,-88.013
-0.477,-0.062,0.800,-27.161,66.223,-76.050
-0.453,-0.053,0.735,-9.949,55.115,-57.739
-0.398,-0.132,0.587,7.324,49.622,-40.649
-0.288,-0.198,0.593,15.381,48.401,-31.189
-0.222,-0.231,0.594,10.620,45.654,-31.921
-0.232,-0.235,0.622,6.714,45.654,-41.809
-0.212,-0.145,0.771,3.601,50.659,-55.115
-0.334,-0.080,0.834,3.296,55.786,-66.345
-0.399,0.045,0.906,6.531,62.866,-71.838
-0.398,0.060,0.926,17.090,69.580,-66.772
-0.394,0.003,0.817,27.832,69.763,-54.504
-0.421,-0.053,0.671,33.142,65.491,-41.992
-0.323,-0.062,0.629,34.973,60.913,-29.358
-0.204,-0.067,0.584,31.616,52.979,-18.677
-0.071,-0.076,0.526,20.935,45.837,-15.869
0.006,-0.179,0.534,15.076,47.546,-23.437
0.005,-0.149,0.626,14.038,53.772,-39.551
-0.054,-0.038,0.694,17.212,55.481,-54.077
-0.120,-0.027,0.707,21.973,50.781,-58.044
-0.168,-0.096,0.618,26.245,42.419,-54.077
-0.240,-0.149,0.551,27.466,34.729,-46.936
-0.258,-0.116,0.601,18.860,28.503,-37.598
-0.158,-0.099,0.845,-1.648,21.851,-26.367
-0.093,-0.112,0.955,-18.372,15.808,-19.958
-0.111,-0.157,0.992,-12.634,19.897,-22.583
-0.026,-0.035,1.026,4.700,32.043,-30.212
0.009,0.076,0.939,17.639,40.100,-34.973
0.080,0.047,0.825,26.184,41.077,-36.621
0.137,-0.039,0.836,19.348,36.316,-38.391
0.069,-0.147,0.861,6.042,27.954,-43.945
-0.065,-0.228,0.891,3.540,23.804,-52.979
-0.267,-0.233,0.915,8.240,27.466,-58.777
-0.286,-0.172,0.915,18.005,34.058,-56.641
-0.179,-0.147,0.848,19.653,37.842,-47.363
-0.082,-0.232,0.675,16.968,38.879,-37.231
0.080,-0.296,0.581,11.292,41.321,-34.485
0.177,-0.242,0.556,-6.897,43.518,-39.246
0.199,-0.209,0.654,-24.353,44.067,-48.828
0.156,-0.129,0.815,-38.757,40.833,-59.509
0.105,-0.132,0.886,-40.100,33.508,-68.298
0.059,-0.185,0.853,-33.447,26.184,-72.144
-0.115,-0.212,0.742,-27.161,23.987,-71.655
-0.075,-0.237,0.623,-15.015,28.442,-72.144
-0.104,-0.302,0.579,-7.202,36.133,-68.298
-0.177,-0.263,0.573,-5.493,38.452,-60.913
-0.223,-0.172,0.627,-10.681,31.555,-48.706
-0.216,-0.074,0.732,-21.912,17.883,-29.480
-0.135,-0.078,0.797,-26.917,3.296,-8.606
-0.085,-0.109,0.768,-19.531,-7.080,7.446
-0.042,-0.157,0.741,-6.287,-10.559,17.639
0.015,-0.175,0.677,7.568,-9.094,21.179
0.044,-0.207,0.592,20.996,-5.981,19.714
-0.001,-0.197,0.557,29.968,-3.906,15.930
-0.085,-0.107,0.585,34.241,-6.592,14.282
-0.149,-0.030,0.626,35.461,-15.747,19.714
-0.164,-0.090,0.624,29.907,-29.968,31.189
-0.227,-0.195,0.662,18.494,-40.283,42.053
-0.261,-0.184,0.765,9.766,-41.382,48.157
-0.273,-0.178,0.837,13.184,-38.025,50.903
-0.285,-0.202,0.869,17.273,-34.424,53.955
-0.278,-0.226,0.876,16.418,-29.602,56.763
-0.275,-0.197,0.927,20.996,-22.949,58.655
-0.260,-0.116,0.817,37.781,-18.372,60.120
-0.193,-0.119,0.667,49.255,-16.174,63.049
-0.114,-0.241,0.638,42.297,-15.869,67.383
-0.054,-0.304,0.693,11.719,-19.470,65.918
-0.017,-0.282,0.826,-24.902,-21.301,56.702
-0.114,-0.223,1.025,-44.678,-17.273,44.128
-0.217,-0.059,1.192,-48.950,-10.559,30.457
-0.288,-0.008,1.322,-35.095,-3.418,20.691
-0.388,-0.047,1.307,-8.789,0.000,16.602
-0.473,-0.128,1.190,11.658,0.061,16.968
-0.519,-0.171,1.087,17.395,0.366,22.766
-0.532,-0.154,1.014,12.512,2.136,32.532
-0.474,-0.081,1.017,5.188,4.761,44.128
-0.337,-0.070,1.033,1.831,4.944,54.810
-0.224,-0.138,0.992,2.502,0.488,59.387
-0.172,-0.144,0.965,-4.089,-4.822,56.152
-0.140,-0.134,0.997,-12.756,-6.958,49.072
-0.129,-0.142,1.115,-17.761,-6.531,40.222
-0.158,-0.034,1.197,-17.822,-6.226,31.738
-0.170,-0.028,1.175,-3.845,-6.226,26.978
-0.202,-0.096,1.088,7.080,-6.348,25.635
-0.229,-0.098,0.987,8.423,-5.981,23.437
-0.233,-0.055,0.891,5.676,-4.333,21.484
-0.193,-0.045,0.916,-6.165,-2.380,22.217
-0.146,-0.032,0.995,-22.705,-2.869,22.217
-0.134,-0.045,1.026,-29.419,-5.737,18.860
-0.148,-0.086,1.068,-29.358,-7.812,12.878
-0.167,-0.093,1.144,-28.748,-7.690,6.287
-0.215,-0.069,1.155,-22.827,-7.202,1.282

-0.685,0.329,2.322,-27.344,-56.885,-31.372
-0.733,0.335,2.415,23.926,-75.378,-20.569
-0.748,0.178,2.194,76.233,-98.938,-9.216
-0.727,0.050,1.938,103.394,-114.502,-6.653
-0.658,-0.068,1.846,89.050,-116.760,-14.465
-0.684,-0.073,1.937,47.485,-110.046,-29.663
-0.799,0.081,2.214,-4.822,-101.440,-42.480
-0.867,0.320,2.665,-51.575,-97.656,-41.626
-0.853,0.506,3.078,-73.486,-103.882,-26.794
-0.829,0.633,3.295,-70.374,-117.249,-8.484
-0.810,0.705,3.277,-54.932,-126.282,4.944
-0.763,0.679,3.145,-37.109,-118.652,12.146
-0.673,0.582,2.963,-32.532,-89.844,9.155
-0.529,0.376,2.791,-40.710,-42.480,-7.141
-0.444,0.225,2.665,-55.847,16.846,-36.377
-0.475,0.106,2.447,-72.388,82.947,-70.801
-0.548,0.178,2.270,-82.031,154.236,-99.670
-0.484,0.062,2.200,-72.021,220.642,-112.793
-0.427,-0.031,1.943,-38.513,261.536,-115.662
-0.441,-0.119,1.464,0.244,276.367,-111.023
-0.541,-0.094,0.946,36.438,272.766,-95.947
-0.532,-0.241,0.551,56.702,254.578,-71.350
-0.545,-0.320,0.109,69.763,223.999,-45.837
-0.557,-0.484,-0.465,86.365,189.514,-25.146
-0.625,-0.495,-0.839,106.689,163.391,-10.071
-0.559,-0.630,-1.048,131.104,139.099,8.362
-0.526,-0.832,-1.264,122.375,108.521,24.780
-0.268,-0.844,-1.451,60.791,82.214,26.672
-0.020,-0.821,-1.500,-40.283,79.590,8.667
0.076,-0.703,-1.109,-123.962,106.689,-34.363
-0.031,-0.545,-0.592,-136.658,140.381,-92.834
-0.283,-0.580,-0.374,-101.379,154.480,-141.907
-0.656,-0.743,-0.385,-56.885,153.931,-175.781
-1.057,-0.723,-0.435,-18.982,150.269,-192.444
-1.319,-0.867,-0.438,4.517,145.508,-180.786
-1.458,-1.033,-0.479,17.212,137.695,-150.391
-1.452,-1.062,-0.463,25.330,127.258,-112.122
-1.258,-1.011,-0.372,22.888,111.938,-65.308
-0.917,-0.921,-0.280,6.226,90.149,-17.212
-0.489,-0.731,-0.128,-14.282,68.970,20.447
-0.080,-0.540,0.086,-31.860,52.307,43.152
0.232,-0.373,0.261,-36.926,40.771,46.509
0.381,-0.278,0.426,-19.226,33.813,32.104
0.362,-0.243,0.544,14.587,27.832,8.667
0.242,-0.260,0.544,46.204,18.799,-12.756
0.130,-0.301,0.498,65.613,7.263,-26.917
0.037,-0.321,0.461,61.768,-4.150,-29.724
0.002,-0.315,0.535,34.058,-13.977,-23.132
0.046,-0.284,0.672,2.930,-22.034,-13.367
0.082,-0.238,0.769,-17.029,-28.259,-4.700
0.123,-0.215,0.854,-29.663,-30.884,0.977
0.170,-0.197,0.965,-42.236,-28.381,2.686
0.187,-0.176,1.052,-49.927,-22.522,-2.441
0.152,-0.152,1.099,-46.387,-14.221,-12.451
0.115,-0.170,1.083,-35.828,-5.493,-23.315
0.064,-0.208,1.011,-25.757,2.747,-32.349
0.008,-0.250,0.857,-22.339,9.827,-38.452
-0.027,-0.249,0.835,-29.602,17.273,-41.321
-0.046,-0.114,1.186,-41.321,20.020,-39.185
-0.103,-0.044,1.499,-35.767,3.967,-29.602
-0.154,-0.141,1.342,-7.263,-25.085,-16.968
-0.178,-0.176,1.164,19.409,-39.917,-8.728
-0.201,-0.149,1.030,33.630,-35.278,-2.686
-0.172,-0.144,0.976,39.124,-19.592,4.333
-0.077,-0.176,1.054,39.307,-2.930,8.362
-0.018,-0.189,1.085,37.903,4.395,6.897
-0.016,-0.186,1.049,36.682,3.357,2.075
-0.018,-0.170,1.006,33.447,1.465,-1.099
-0.001,-0.144,0.980,27.222,1.892,-0.549
0.045,-0.124,1.001,20.752,5.798,2.930
0.116,-0.106,1.067,19.775,9.888,6.653
0.163,-0.086,1.088,26.550,9.460,8.545
0.167,-0.087,1.040,38.086,5.737,7.202
0.164,-0.109,0.964,49.988,1.892,4.028
0.157,-0.177,0.891,52.673,-1.404,0.549
0.131,-0.210,0.858,43.274,-3.113,-3.174
0.106,-0.209,0.883,30.518,-3.052,-7.568
0.078,-0.229,0.915,21.301,-2.930,-10.803
0.037,-0.246,0.931,16.968,-3.174,-12.146
0.003,-0.237,0.943,16.785,-3.845,-11.169
-0.005,-0.255,0.935,15.930,-5.920,-6.714
-0.005,-0.256,0.933,12.268,-8.301,-1.770
0.011,-0.271,0.950,10.071,-10.376,2.319
0.011,-0.279,0.939,7.324,-13.550,4.456
0.002,-0.274,0.943,1.770,-16.113,4.822
-0.003,-0.251,0.973,-6.409,-17.395,5.249
0.001,-0.234,1.017,-12.695,-17.151,5.249
-0.001,-0.227,1.063,-14.893,-16.602,4.456
-0.005,-0.199,1.089,-15.015,-15.930,3.174
0.002,-0.162,1.071,-14.343,-14.893,2.441
0.011,-0.152,1.075,-10.437,-11.475,2.686
0.024,-0.165,1.063,-6.836,-6.958,3.845
0.033,-0.155,1.056,-5.066,-3.052,4.456
0.043,-0.149,1.078,-4.211,0.183,5.371
0.053,-0.145,1.084,-4.456,1.526,6.470
0.052,-0.131,1.076,-3.418,1.709,6.592
0.054,-0.118,1.060,1.709,2.075,6.287
0.070,-0.143,1.027,6.348,2.014,5.981
0.082,-0.150,1.012,5.859,1.892,5.615
0.091,-0.147,1.011,3.479,1.648,4.578
0.095,-0.156,1.003,2.625,1.160,3.662
0.094,-0.165,1.002,2.869,0.244,2.502
0.088,-0.175,0.998,3.479,-0.549,1.526
0.077,-0.181,0.993,3.296,-1.343,0.854
0.076,-0.192,1.006,3.601,-1.648,-0.061
0.064,-0.198,1.026,5.188,-2.747,-0.854
0.047,-0.204,1.031,5.676,-4.395,-0.854
0.029,-0.200,1.038,5.920,-6.042,-0.671
0.012,-0.193,1.038,7.874,-7.263,0.488
0.008,-0.183,1.023,11.292,-7.996,2.197
0.021,-0.184,1.013,12.939,-8.423,4.272
0.044,-0.197,1.004,11.047,-9.338,5.798
0.052,-0.202,1.000,6.592,-10.315,6.348
0.053,-0.200,1.001,1.709,-10.620,5.127
0.057,-0.200,1.011,-2.258,-10.315,3.052
0.049,-0.204,1.019,-4.333,-9.094,0.610
0.033,-0.207,1.021,-3.723,-7.507,-2.014
0.015,-0.204,1.020,-1.465,-5.615,-3.479
-0.005,-0.204,1.024,0.183,-3.906,-3.601

-0.562,0.052,1.954,50.232,-61.279,-12.817
-0.631,-0.006,1.838,60.486,-65.552,-9.766
-0.672,-0.046,1.736,60.181,-62.378,-2.991
-0.689,-0.086,1.680,47.852,-53.772,7.141
-0.678,-0.116,1.668,25.879,-40.771,17.700
-0.631,-0.118,1.652,2.075,-24.048,25.330
-0.568,-0.147,1.653,-14.709,-3.906,28.076
-0.505,-0.118,1.703,-22.766,17.212,24.902
-0.439,-0.104,1.749,-21.301,34.790,17.456
-0.395,-0.169,1.773,-11.169,44.434,7.019
-0.402,-0.246,1.751,-0.488,45.715,-5.493
-0.428,-0.292,1.680,7.812,40.771,-20.874
-0.479,-0.333,1.616,10.986,32.654,-36.377
-0.532,-0.376,1.548,10.010,24.780,-48.218
-0.612,-0.416,1.487,8.362,19.287,-55.115
-0.666,-0.431,1.420,8.118,17.639,-57.068
-0.691,-0.470,1.375,8.179,18.860,-53.528
-0.693,-0.510,1.362,4.700,20.569,-46.021
-0.669,-0.512,1.303,-3.418,21.057,-38.330
-0.612,-0.540,1.257,-9.949,21.423,-32.776
-0.552,-0.602,1.243,-13.916,22.156,-30.518
-0.529,-0.721,1.169,-13.184,22.217,-32.410
-0.558,-0.761,1.048,-10.620,25.269,-38.086
-0.590,-0.712,0.948,-11.108,35.095,-42.908
-0.594,-0.657,0.852,-12.817,52.551,-42.847
-0.568,-0.601,0.757,-10.010,76.294,-38.879
-0.527,-0.594,0.683,1.343,103.149,-33.997
-0.504,-0.599,0.589,20.569,127.563,-31.006
-0.506,-0.584,0.514,43.091,146.057,-30.457
-0.520,-0.615,0.402,60.669,154.541,-29.480
-0.543,-0.650,0.225,72.998,156.311,-26.611
-0.554,-0.618,0.089,74.158,156.250,-20.386
-0.527,-0.621,0.043,68.420,155.579,-11.841
-0.469,-0.700,0.035,62.134,151.855,-4.944
-0.426,-0.793,0.017,55.908,145.386,-3.906
-0.413,-0.836,-0.003,47.607,138.000,-9.521
-0.432,-0.859,0.026,39.551,132.080,-20.020
-0.458,-0.816,0.104,30.334,126.343,-30.579
-0.473,-0.718,0.141,20.142,119.873,-36.255
-0.486,-0.645,0.130,12.939,115.173,-33.813
-0.469,-0.596,0.119,13.733,116.455,-25.879
-0.441,-0.534,0.092,22.522,122.803,-15.625
-0.414,-0.477,0.071,35.339,131.348,-4.883
-0.372,-0.449,0.055,46.265,138.428,6.042
-0.323,-0.510,-0.001,53.528,141.052,15.991
-0.264,-0.580,-0.020,52.673,140.137,21.484
-0.193,-0.642,0.054,42.480,135.864,21.301
-0.131,-0.679,0.184,28.320,125.916,17.151
-0.098,-0.654,0.296,11.902,108.643,12.146
-0.093,-0.566,0.358,-3.540,87.158,9.155
-0.103,-0.483,0.400,-13.550,65.979,9.094
-0.095,-0.393,0.411,-16.418,47.424,11.353
-0.056,-0.307,0.402,-14.771,32.043,15.381
-0.000,-0.285,0.375,-17.212,19.470,20.935
0.058,-0.302,0.351,-27.039,10.742,25.513
0.112,-0.337,0.341,-38.208,6.165,24.536
0.172,-0.382,0.364,-45.593,5.127,16.418
0.219,-0.453,0.399,-48.828,5.249,2.014
0.228,-0.513,0.412,-54.993,5.371,-15.503
0.155,-0.597,0.412,-70.740,7.202,-33.875
0.203,-0.539,0.468,-92.896,12.756,-51.758
0.172,-0.437,0.537,-114.014,21.667,-64.758
0.083,-0.312,0.629,-121.094,32.043,-71.594
0.030,-0.203,0.727,-110.291,42.053,-72.144
-0.142,-0.184,0.779,-96.069,49.438,-67.688
0.002,-0.110,0.890,-78.186,54.077,-69.519
0.066,-0.025,0.912,-39.917,51.270,-65.979
0.085,0.031,0.915,-21.057,43.640,-50.720
0.086,0.011,0.919,-14.893,33.020,-29.907
0.079,-0.042,0.950,-13.428,21.851,-10.132
0.107,-0.118,0.971,-12.573,10.071,3.662
0.169,-0.202,0.970,-4.700,-0.366,9.094
0.199,-0.272,0.923,10.498,-8.606,6.897
0.188,-0.316,0.841,24.170,-13.977,0.427
0.142,-0.323,0.781,29.663,-14.587,-6.470
0.103,-0.301,0.781,28.381,-11.047,-12.695
0.079,-0.261,0.827,26.917,-6.897,-16.418
0.072,-0.248,0.889,28.381,-5.554,-16.602
0.084,-0.272,0.942,31.006,-9.277,-14.893
0.088,-0.322,0.965,31.311,-17.944,-13.062
0.079,-0.361,0.962,27.893,-29.236,-12.756
0.062,-0.369,0.948,23.132,-40.833,-14.526
0.046,-0.353,0.933,18.372,-50.659,-16.968
0.036,-0.323,0.917,13.123,-58.105,-17.944
0.022,-0.302,0.918,7.446,-62.988,-16.663
0.004,-0.285,0.916,2.686,-66.040,-13.367
-0.005,-0.262,0.908,0.549,-67.139,-8.728
-0.013,-0.260,0.890,0.854,-66.406,-3.723
-0.019,-0.274,0.879,0.916,-63.171,1.038
-0.023,-0.298,0.857,0.122,-57.861,5.066
-0.033,-0.307,0.842,-1.892,-50.537,7.324
-0.029,-0.334,0.859,-3.967,-41.504,8.118
-0.024,-0.355,0.891,-5.737,-32.532,7.568
-0.016,-0.363,0.922,-7.080,-25.085,5.737
-0.012,-0.354,0.940,-8.972,-19.714,3.906
-0.021,-0.337,0.942,-9.949,-15.930,2.625
-0.037,-0.329,0.934,-9.766,-12.756,1.831
-0.044,-0.324,0.919,-10.010,-9.521,2.319
-0.045,-0.324,0.913,-11.169,-5.981,3.540
-0.036,-0.331,0.925,-13.977,-2.441,5.188
-0.026,-0.330,0.952,-18.433,0.793,6.775
-0.020,-0.320,0.987,-22.766,3.540,8.240
-0.016,-0.305,1.023,-25.513,5.798,9.094
-0.011,-0.277,1.061,-25.818,7.019,9.338
-0.004,-0.243,1.083,-22.888,6.958,9.521
-0.000,-0.221,1.097,-15.442,5.920,10.803
-0.000,-0.218,1.102,-5.615,3.662,12.878
0.005,-0.221,1.093,2.075,0.610,15.015
0.022,-0.225,1.078,6.775,-3.296,16.479
0.029,-0.235,1.058,9.277,-7.080,17.090
0.034,-0.249,1.036,10.498,-10.498,16.846
0.047,-0.262,1.018,10.742,-12.939,15.808
0.048,-0.279,1.005,10.254,-13.977,14.526
0.035,-0.290,0.995,11.230,-13.062,12.207
0.022,-0.295,0.979,12.756,-10.681,9.033
0.016,-0.300,0.971,13.916,-6.836,5.859
0.015,-0.298,0.976,13.916,-2.869,3.296
0.021,-0.289,0.983,11.719,0.549,1.831
0.020,-0.274,0.997,8.423,3.235,1.770

-0.526,0.773,1.661,-69.824,-44.067,84.229
-0.584,0.856,1.768,-73.364,-62.561,87.463
-0.616,0.897,1.819,-80.383,-87.219,91.431
-0.611,0.904,1.846,-92.773,-113.159,96.619
-0.593,0.908,1.876,-109.436,-135.498,102.661
-0.597,0.949,1.918,-122.253,-151.733,108.276
-0.631,0.976,1.939,-122.803,-160.767,112.061
-0.676,0.952,1.885,-110.779,-162.048,113.586
-0.699,0.920,1.810,-95.764,-153.137,111.633
-0.692,0.848,1.772,-85.327,-135.010,107.300
-0.719,0.812,1.759,-76.843,-109.497,101.196
-0.802,0.820,1.766,-63.171,-80.872,91.675
-0.922,0.818,1.731,-34.607,-54.016,79.956
-0.958,0.749,1.585,4.517,-32.043,66.895
-0.972,0.606,1.428,35.156,-14.038,53.284
-0.925,0.491,1.320,47.852,-1.099,38.269
-0.829,0.402,1.296,42.786,5.859,22.156
-0.691,0.338,1.333,25.208,6.775,5.981
-0.632,0.268,1.396,3.357,1.465,-8.606
-0.634,0.248,1.489,-13.855,-8.423,-23.254
-0.625,0.195,1.518,-16.663,-23.621,-37.354
-0.640,0.146,1.420,-12.573,-40.161,-51.636
-0.571,-0.020,1.217,0.916,-50.171,-67.749
-0.805,-0.028,0.982,30.701,-49.500,-89.722
-0.989,-0.137,0.731,66.528,-40.405,-116.028
-0.900,-0.337,0.501,88.196,-23.865,-142.456
-0.788,-0.291,0.296,85.449,-0.488,-166.992
-0.649,-0.237,0.171,75.928,27.466,-185.730
-0.555,-0.231,0.174,70.251,57.129,-197.876
-0.541,-0.162,0.147,67.139,84.534,-205.017
-0.652,-0.086,0.134,69.702,109.436,-207.825
-0.775,-0.137,0.139,75.989,132.690,-203.064
-0.807,-0.182,0.212,76.111,153.076,-193.848
-0.752,-0.279,0.345,72.327,166.626,-187.927
-0.742,-0.386,0.387,76.721,169.678,-185.974
-0.799,-0.457,0.313,83.191,163.696,-184.631
-0.912,-0.495,0.275,78.796,154.297,-182.312
-0.987,-0.499,0.298,65.247,143.677,-178.894
-1.001,-0.501,0.284,55.298,132.141,-173.218
-1.005,-0.584,0.329,56.030,122.314,-165.222
-1.046,-0.701,0.500,58.960,114.075,-156.921
-1.096,-0.655,0.608,72.021,103.760,-151.611
-1.022,-0.630,0.619,98.694,92.529,-149.109
-0.951,-0.502,0.529,122.253,83.191,-143.188
-0.938,-0.389,0.373,135.315,78.491,-127.136
-0.915,-0.392,0.213,147.034,82.336,-104.431
-0.858,-0.443,0.079,156.738,93.140,-82.397
-0.777,-0.501,0.039,155.701,108.459,-64.453
-0.702,-0.496,0.132,145.569,123.962,-52.368
-0.638,-0.410,0.260,139.954,135.864,-43.396
-0.566,-0.317,0.390,144.531,142.212,-33.569
-0.504,-0.289,0.491,152.405,140.869,-22.156
-0.423,-0.263,0.482,159.180,131.226,-11.719
-0.341,-0.287,0.438,161.743,117.371,-3.479
-0.262,-0.347,0.398,154.785,101.135,2.502
-0.215,-0.373,0.397,137.146,83.679,4.822
-0.180,-0.380,0.433,115.417,65.979,3.113
-0.146,-0.372,0.498,94.666,48.035,-1.038
-0.124,-0.346,0.573,78.064,30.457,-4.761
-0.112,-0.317,0.632,66.956,12.085,-7.568
-0.099,-0.290,0.667,59.143,-5.859,-9.155
-0.097,-0.267,0.698,49.133,-22.522,-8.911
-0.079,-0.264,0.733,38.330,-36.743,-7.751
-0.067,-0.279,0.762,30.334,-47.607,-7.324
-0.064,-0.301,0.780,27.039,-55.115,-8.179
-0.073,-0.319,0.800,25.208,-59.265,-10.193
-0.072,-0.298,0.832,22.888,-61.462,-12.329
-0.058,-0.236,0.857,21.057,-62.683,-12.756
-0.118,-0.206,0.878,15.259,-63.965,-7.507
-0.169,-0.201,0.899,8.972,-64.270,-2.625
-0.209,-0.205,0.908,6.775,-64.026,0.916
-0.222,-0.213,0.908,5.798,-62.012,2.869
-0.214,-0.234,0.910,5.981,-58.594,3.235
-0.213,-0.263,0.911,6.348,-53.711,2.136
-0.211,-0.288,0.908,5.310,-47.729,-0.305
-0.225,-0.305,0.897,3.296,-40.710,-3.845
-0.229,-0.312,0.864,2.075,-32.898,-8.972
-0.203,-0.325,0.821,1.404,-23.437,-15.259
-0.196,-0.317,0.778,-0.427,-12.268,-19.897
-0.198,-0.321,0.752,-4.333,0.610,-22.583
-0.203,-0.340,0.746,-8.606,15.076,-25.024
-0.209,-0.340,0.762,-11.719,30.579,-27.832
-0.200,-0.322,0.807,-17.151,45.166,-31.006
-0.190,-0.267,0.882,-23.071,57.312,-33.508
-0.175,-0.195,0.974,-25.879,65.186,-34.485
-0.177,-0.137,1.072,-23.743,67.810,-32.410
-0.185,-0.108,1.129,-15.381,63.599,-27.649
-0.194,-0.116,1.134,-4.517,53.406,-21.240
-0.205,-0.166,1.113,3.357,39.795,-14.282
-0.205,-0.221,1.066,6.958,24.963,-8.789
-0.194,-0.260,1.017,6.165,10.925,-5.737
-0.187,-0.285,0.977,2.808,-0.488,-4.700
-0.178,-0.298,0.948,-1.648,-9.033,-4.883
-0.176,-0.294,0.929,-8.667,-15.564,-5.310
-0.186,-0.281,0.927,-15.015,-19.409,-5.920
-0.197,-0.260,0.935,-20.203,-20.813,-6.531
-0.205,-0.214,0.948,-25.696,-20.081,-6.348
-0.208,-0.166,0.961,-29.114,-17.761,-4.822
-0.205,-0.144,0.974,-28.320,-14.404,-2.319
-0.206,-0.116,0.981,-25.574,-10.681,1.465
-0.196,-0.100,0.985,-23.376,-7.141,5.859
-0.188,-0.091,0.990,-21.790,-4.089,10.376
-0.181,-0.084,0.991,-18.982,-2.258,14.771
-0.170,-0.088,0.996,-15.137,-0.854,18.494
-0.154,-0.102,1.003,-11.597,-0.305,21.545
-0.132,-0.107,1.009,-9.583,-1.221,23.743
-0.113,-0.108,1.020,-8.240,-3.113,24.719
-0.102,-0.118,1.034,-6.287,-6.042,24.719
-0.096,-0.121,1.045,-5.798,-10.437,23.254
-0.100,-0.111,1.047,-7.446,-15.930,20.813
-0.103,-0.101,1.046,-10.376,-21.301,18.005
-0.102,-0.088,1.053,-12.390,-26.489,15.808
-0.102,-0.078,1.051,-13.611,-30.884,13.611
-0.106,-0.073,1.039,-13.672,-34.424,11.963
-0.113,-0.078,1.023,-12.268,-36.377,10.376
-0.125,-0.082,1.008,-10.803,-36.682,8.972
-0.140,-0.086,0.998,-9.766,-36.072,7.690
-0.152,-0.091,0.991,-10.315,-34.363,6.470
-0.165,-0.084,0.982,-12.329,-31.738,5.310

-0.887,0.434,1.484,-30.579,-96.008,6.958
-1.004,0.486,1.559,-25.757,-107.788,8.728
-1.065,0.514,1.648,-21.729,-121.033,13.367
-1.044,0.558,1.789,-38.574,-135.864,23.193
-0.956,0.659,1.973,-68.970,-150.208,36.194
-0.999,0.851,2.090,-83.801,-162.537,50.415
-1.220,0.979,2.078,-73.425,-170.349,67.200
-1.422,0.836,2.025,-45.166,-171.326,79.712
-1.566,0.605,2.008,-28.625,-166.138,82.581
-1.720,0.531,2.064,-36.560,-156.616,75.378
-1.820,0.528,2.190,-53.894,-146.118,62.683
-1.774,0.584,2.191,-68.298,-136.169,50.537
-1.719,0.794,2.129,-82.031,-122.070,46.509
-1.636,0.918,2.058,-90.515,-98.816,53.955
-1.485,0.926,1.872,-84.351,-64.026,66.406
-1.188,0.938,1.801,-70.862,-18.433,76.782
-0.953,0.925,1.857,-54.321,26.062,84.595
-0.826,0.777,2.008,-43.030,57.068,86.060
-0.867,0.539,2.031,-26.978,68.726,73.059
-0.987,0.465,1.933,-10.132,72.327,44.495
-0.986,0.243,1.659,38.574,77.881,6.836
-0.916,-0.000,1.306,81.604,91.064,-29.053
-0.808,-0.262,1.082,90.576,113.647,-57.617
-0.736,-0.373,0.859,81.909,140.747,-78.430
-0.676,-0.396,0.524,72.571,170.410,-92.041
-0.639,-0.550,0.359,69.519,202.026,-101.135
-0.659,-0.653,0.434,58.044,226.807,-111.023
-0.661,-0.590,0.505,44.128,236.511,-124.512
-0.689,-0.484,0.555,41.992,234.680,-138.000
-0.779,-0.444,0.502,65.918,228.210,-148.865
-0.893,-0.556,0.169,120.972,222.961,-157.898
-0.976,-0.760,-0.358,179.016,224.548,-162.598
-1.099,-0.893,-0.771,210.449,235.168,-160.889
-1.191,-0.940,-0.988,214.783,249.390,-154.846
-1.197,-1.004,-1.028,202.393,260.193,-144.714
-1.177,-1.057,-0.882,182.739,262.817,-132.141
-1.121,-1.085,-0.665,161.133,252.625,-119.690
-1.063,-1.096,-0.514,144.409,230.164,-106.750
-0.972,-1.169,-0.430,131.897,199.585,-92.957
-0.911,-1.114,-0.416,119.873,168.518,-77.515
-0.858,-1.010,-0.472,113.220,143.799,-57.495
-0.770,-0.947,-0.556,113.342,129.944,-32.349
-0.646,-0.904,-0.615,108.887,126.831,-4.639
-0.503,-0.829,-0.721,99.487,132.629,21.240
-0.348,-0.729,-0.853,92.407,148.071,43.274
-0.137,-0.703,-0.891,84.351,171.875,61.523
0.077,-0.650,-0.727,65.796,199.158,75.317
0.231,-0.563,-0.321,45.349,219.421,83.862
0.332,-0.489,0.208,44.861,219.971,85.083
0.395,-0.511,0.426,69.092,190.369,80.139
0.385,-0.517,0.438,93.506,142.395,69.641
0.342,-0.539,0.388,102.539,92.163,54.199
0.313,-0.516,0.273,92.712,45.776,34.729
0.307,-0.426,0.143,57.861,9.277,15.991
0.309,-0.356,0.041,-0.427,-14.038,3.235
0.316,-0.391,-0.019,-69.702,-23.193,-3.418
0.354,-0.452,0.007,-135.681,-18.555,-9.949
0.397,-0.392,0.192,-187.317,-4.395,-20.813
0.403,-0.189,0.592,-210.571,10.498,-33.203
0.354,-0.031,0.957,-194.153,13.672,-40.771
0.234,0.029,1.091,-151.794,0.916,-39.307
0.116,0.021,1.110,-107.178,-19.531,-30.640
0.039,-0.001,1.078,-73.547,-40.894,-18.433
0.022,-0.040,0.994,-52.734,-59.448,-5.310
0.045,-0.073,0.903,-46.509,-71.899,7.507
0.099,-0.078,0.861,-49.255,-76.477,19.226
0.151,-0.078,0.877,-52.979,-74.890,27.588
0.190,-0.103,0.911,-48.828,-69.946,31.494
0.190,-0.135,0.951,-39.734,-63.660,30.396
0.179,-0.159,0.972,-30.090,-57.129,25.024
0.157,-0.150,1.007,-23.743,-50.537,17.456
0.107,-0.145,1.064,-21.057,-45.471,10.071
0.087,-0.118,1.118,-19.897,-42.969,3.113
0.046,-0.076,1.134,-15.808,-42.358,-2.197
0.009,-0.054,1.130,-11.475,-42.908,-4.578
0.002,-0.044,1.137,-5.310,-43.823,-5.676
0.006,-0.049,1.143,0.854,-45.410,-4.822
-0.002,-0.047,1.141,4.089,-47.729,-2.258
-0.006,-0.044,1.137,7.812,-50.964,1.648
0.009,-0.051,1.120,13.855,-54.810,6.165
0.028,-0.078,1.088,20.630,-58.228,10.315
0.048,-0.132,1.054,24.902,-61.218,13.306
0.054,-0.194,1.038,23.743,-62.805,14.099
0.051,-0.221,1.037,17.151,-63.477,12.268
0.048,-0.204,1.050,8.606,-63.599,9.216
-0.001,-0.204,1.048,2.014,-62.805,6.775
-0.029,-0.245,1.059,-3.174,-61.340,3.662
-0.085,-0.325,1.102,-2.686,-59.326,-2.014
-0.080,-0.253,1.058,-4.761,-58.838,-11.292
-0.068,-0.238,1.049,-10.681,-56.824,-18.677
-0.085,-0.216,1.048,-13.733,-53.101,-23.254
-0.112,-0.198,1.036,-13.794,-48.889,-25.208
-0.145,-0.181,1.009,-13.855,-43.884,-24.780
-0.170,-0.164,0.992,-15.259,-38.452,-22.400
-0.183,-0.156,0.982,-18.005,-32.410,-18.860
-0.186,-0.160,0.982,-22.949,-25.940,-14.282
-0.174,-0.153,0.993,-29.114,-19.226,-10.681
-0.150,-0.147,1.004,-33.691,-12.817,-7.874
-0.127,-0.155,1.029,-34.912,-6.592,-6.165
-0.114,-0.156,1.046,-33.142,-1.465,-5.676
-0.109,-0.149,1.051,-29.602,2.991,-6.409
-0.107,-0.145,1.038,-26.184,7.019,-7.507
-0.102,-0.140,1.017,-23.376,11.353,-9.155
-0.099,-0.135,0.991,-22.644,16.418,-10.620
-0.094,-0.126,0.960,-24.170,22.705,-11.963
-0.081,-0.123,0.936,-25.696,30.273,-13.062
-0.058,-0.119,0.923,-27.710,38.940,-14.526
-0.040,-0.101,0.932,-30.273,48.035,-15.747
-0.023,-0.082,0.977,-30.762,56.152,-17.212
-0.008,-0.059,1.051,-30.151,60.608,-18.311
0.000,-0.028,1.148,-28.381,59.326,-18.372
-0.007,0.008,1.218,-24.109,50.964,-17.151
-0.016,0.033,1.246,-16.968,36.926,-14.343
-0.022,0.033,1.242,-8.118,19.104,-10.925
-0.017,0.024,1.202,0.977,1.343,-7.507
-0.011,0.004,1.137,9.033,-14.282,-4.578
-0.013,-0.029,1.066,15.686,-26.306,-3.052
-0.025,-0.060,1.002,19.714,-33.752,-2.319
-0.034,-0.084,0.963,21.240,-37.048,-2.502

-0.762,0.262,1.625,11.658,-18.982,7.019
-0.779,0.298,1.628,16.785,-19.043,17.151
-0.780,0.308,1.586,22.766,-23.743,28.564
-0.733,0.274,1.528,21.179,-31.433,41.260
-0.687,0.161,1.531,7.446,-39.856,52.368
-0.687,0.083,1.525,-5.066,-48.706,58.655
-0.725,0.052,1.479,-13.367,-57.190,60.059
-0.749,0.016,1.422,-25.574,-62.134,58.289
-0.735,-0.001,1.362,-38.513,-62.073,54.016
-0.713,0.010,1.335,-53.040,-56.030,48.096
-0.703,0.080,1.340,-60.059,-45.837,40.527
-0.742,0.151,1.401,-45.593,-35.217,32.288
-0.713,0.124,1.457,-9.033,-31.738,23.682
-0.605,-0.087,1.393,23.499,-38.696,13.611
-0.596,-0.220,1.182,10.315,-47.546,0.183
-0.670,-0.249,0.979,-11.841,-46.387,-18.555
-0.665,-0.315,0.918,-0.366,-33.508,-44.128
-0.611,-0.366,0.905,11.536,-15.381,-71.289
-0.610,-0.350,0.876,8.545,3.662,-94.910
-0.628,-0.372,0.858,11.719,25.208,-114.685
-0.656,-0.419,0.812,24.414,47.974,-130.859
-0.706,-0.507,0.705,34.607,71.045,-143.311
-0.691,-0.486,0.600,34.485,94.604,-151.001
-0.691,-0.376,0.586,22.034,117.188,-148.682
-0.738,-0.310,0.677,-3.784,135.071,-133.484
-0.739,-0.307,0.860,-28.198,146.729,-112.549
-0.721,-0.311,0.968,-33.752,149.902,-92.712
-0.685,-0.321,1.004,-19.043,147.217,-76.721
-0.663,-0.343,0.996,3.662,139.893,-63.599
-0.647,-0.358,0.938,29.663,129.150,-52.979
-0.621,-0.390,0.847,56.580,117.432,-44.189
-0.596,-0.429,0.702,76.233,105.591,-37.048
-0.575,-0.476,0.557,83.557,96.985,-31.921
-0.529,-0.512,0.454,79.651,94.116,-30.151
-0.481,-0.551,0.407,72.021,96.252,-32.104
-0.467,-0.582,0.410,66.589,101.196,-37.354
-0.482,-0.583,0.437,60.852,107.483,-45.593
-0.518,-0.538,0.475,55.786,112.854,-56.091
-0.538,-0.475,0.513,55.420,116.821,-66.711
-0.555,-0.415,0.538,60.486,119.324,-74.402
-0.584,-0.364,0.521,71.716,120.605,-78.857
-0.608,-0.345,0.489,87.036,121.155,-80.261
-0.628,-0.367,0.417,104.492,121.948,-80.017
-0.631,-0.409,0.303,121.521,122.986,-78.613
-0.599,-0.477,0.210,135.742,125.061,-75.073
-0.556,-0.565,0.177,141.479,126.404,-69.031
-0.529,-0.636,0.189,136.108,124.146,-61.096
-0.538,-0.669,0.197,116.028,117.493,-52.917
-0.574,-0.617,0.175,85.388,108.948,-46.143
-0.570,-0.541,0.161,58.044,101.318,-41.504
-0.477,-0.524,0.186,43.091,96.252,-37.964
-0.391,-0.542,0.232,35.645,92.102,-33.508
-0.305,-0.571,0.276,33.264,86.792,-28.320
-0.233,-0.620,0.315,32.410,80.261,-22.766
-0.208,-0.627,0.326,28.320,71.777,-18.494
-0.190,-0.617,0.316,20.447,62.744,-15.076
-0.181,-0.587,0.311,10.071,54.810,-12.695
-0.184,-0.527,0.335,-3.296,47.852,-11.169
-0.173,-0.483,0.411,-17.639,41.382,-10.010
-0.141,-0.431,0.508,-30.884,34.058,-9.399
-0.105,-0.388,0.611,-42.908,25.574,-8.728
-0.081,-0.373,0.695,-50.354,16.174,-8.179
-0.065,-0.368,0.765,-50.964,7.324,-8.972
-0.060,-0.358,0.801,-45.471,-0.305,-11.353
-0.066,-0.354,0.801,-36.316,-6.226,-13.855
-0.088,-0.376,0.771,-28.564,-9.155,-16.296
-0.113,-0.405,0.734,-24.536,-8.423,-19.104
-0.137,-0.422,0.701,-24.292,-4.272,-22.095
-0.153,-0.401,0.673,-25.391,3.235,-25.085
-0.162,-0.378,0.673,-26.367,12.878,-26.428
-0.170,-0.364,0.693,-28.076,23.132,-25.208
-0.178,-0.344,0.734,-31.921,31.677,-22.095
-0.177,-0.319,0.795,-36.316,37.659,-17.822
-0.163,-0.288,0.863,-38.574,40.405,-12.512
-0.150,-0.240,0.923,-36.987,39.673,-6.409
-0.137,-0.193,0.980,-32.043,35.583,0.549
-0.112,-0.171,1.021,-24.231,28.076,9.338
-0.082,-0.193,1.036,-14.343,18.799,18.311
-0.061,-0.237,1.015,-6.348,9.094,26.428
-0.052,-0.275,0.992,-1.709,1.160,31.982
-0.048,-0.295,0.970,0.244,-3.967,34.668
-0.044,-0.306,0.966,0.183,-6.897,34.729
-0.040,-0.260,0.953,-1.526,-8.179,33.203
-0.034,-0.238,0.969,-3.906,-7.202,32.166
-0.024,-0.222,0.996,-7.874,-5.310,31.738
-0.011,-0.218,1.037,-10.254,-3.601,30.823
-0.005,-0.210,1.071,-9.827,-2.502,28.809
0.013,-0.182,1.070,-5.737,-2.258,26.062
0.019,-0.165,1.071,-0.366,-2.319,24.170
0.016,-0.165,1.085,3.479,-2.869,23.376
0.022,-0.156,1.094,5.615,-4.456,22.766
0.027,-0.140,1.104,8.667,-7.690,22.217
0.042,-0.145,1.119,14.160,-12.085,21.973
0.058,-0.162,1.109,21.484,-18.005,21.729
0.055,-0.186,1.075,29.236,-24.597,21.057
0.043,-0.220,1.035,33.997,-30.762,20.264
0.025,-0.256,1.002,34.302,-35.828,18.799
0.012,-0.273,0.980,29.358,-39.246,16.602
0.006,-0.288,0.975,22.095,-40.527,13.855
-0.009,-0.304,0.982,15.442,-40.283,10.498
-0.040,-0.310,0.997,10.254,-38.513,6.226
-0.066,-0.298,1.015,5.432,-36.072,1.831
-0.075,-0.283,1.035,1.587,-33.386,-1.587
-0.090,-0.267,1.035,0.061,-30.273,-2.808
-0.109,-0.262,1.015,0.916,-26.489,-2.869
-0.123,-0.269,0.989,2.686,-21.606,-1.831
-0.134,-0.276,0.957,2.686,-15.686,0.122
-0.142,-0.276,0.939,0.305,-9.399,2.502
-0.142,-0.271,0.936,-2.747,-3.174,4.578
-0.136,-0.266,0.946,-5.737,2.930,6.348
-0.128,-0.266,0.966,-8.240,7.996,7.690
-0.113,-0.259,0.995,-11.230,11.841,8.545
-0.090,-0.243,1.000,-15.076,14.282,8.789
-0.065,-0.234,0.992,-17.334,16.602,9.399
-0.043,-0.236,0.979,-17.456,19.531,9.583
-0.029,-0.244,0.965,-15.930,23.315,8.850
-0.025,-0.247,0.951,-13.794,27.527,7.385
-0.021,-0.232,0.939,-11.658,31.921,5.493
-0.008,-0.220,0.946,-10.437,35.156,4.089

-0.654,-0.083,1.878,-62.012,-61.829,36.621
-0.653,-0.009,1.912,-56.152,-64.575,28.442
-0.623,0.053,1.877,-37.964,-70.313,19.653
-0.609,0.081,1.808,-14.648,-77.393,13.000
-0.644,0.047,1.703,3.540,-84.412,9.521
-0.686,0.038,1.573,13.306,-90.149,6.714
-0.736,0.031,1.427,17.883,-93.018,3.906
-0.769,0.022,1.282,21.851,-91.309,2.014
-0.822,0.023,1.155,26.489,-84.534,1.038
-0.882,0.010,1.077,28.687,-74.646,1.099
-0.887,-0.064,1.109,23.499,-64.148,1.587
-0.847,-0.133,1.187,9.277,-57.129,1.282
-0.805,-0.160,1.257,-6.531,-54.382,0.854
-0.799,-0.140,1.296,-18.677,-54.260,0.305
-0.827,-0.124,1.281,-24.353,-54.626,0.366
-0.850,-0.133,1.267,-27.527,-53.467,0.000
-0.868,-0.101,1.255,-26.917,-49.927,-1.221
-0.937,-0.045,1.202,-21.118,-45.837,-1.099
-0.994,-0.015,1.175,-17.944,-41.016,-0.183
-0.964,-0.084,1.102,-6.287,-37.109,0.183
-0.864,-0.153,0.985,6.775,-34.180,0.854
-0.740,-0.182,0.873,15.259,-31.250,1.099
-0.555,-0.300,0.908,15.503,-28.687,3.479
-0.587,-0.475,1.034,4.456,-29.724,7.629
-0.644,-0.326,0.897,-13.855,-37.231,4.639
-0.715,-0.304,0.841,-31.250,-38.086,1.709
-0.767,-0.300,0.856,-35.522,-29.053,-0.916
-0.784,-0.275,0.846,-29.236,-14.465,-5.127
-0.743,-0.299,0.824,-15.442,3.357,-11.597
-0.693,-0.301,0.731,2.075,25.146,-19.836
-0.664,-0.307,0.578,21.973,51.392,-29.175
-0.696,-0.361,0.421,39.124,82.520,-38.696
-0.701,-0.478,0.349,45.410,117.126,-49.194
-0.706,-0.518,0.388,33.997,150.391,-62.134
-0.709,-0.458,0.480,20.935,179.504,-77.087
-0.690,-0.358,0.556,21.790,201.355,-90.637
-0.570,-0.197,0.587,34.973,214.172,-96.191
-0.541,0.010,0.593,47.119,217.041,-86.243
-0.516,-0.027,0.584,56.091,211.670,-65.491
-0.483,-0.175,0.510,66.223,199.280,-46.021
-0.424,-0.325,0.405,72.937,184.204,-37.231
-0.390,-0.480,0.269,78.491,170.715,-39.734
-0.390,-0.598,0.102,80.505,161.926,-49.805
-0.498,-0.665,0.041,71.960,160.034,-62.927
-0.557,-0.709,0.086,58.716,163.513,-76.843
-0.583,-0.564,0.187,43.579,169.983,-86.548
-0.578,-0.404,0.322,39.429,177.002,-84.534
-0.575,-0.285,0.428,47.729,181.458,-69.397
-0.583,-0.242,0.423,61.218,180.603,-46.753
-0.587,-0.249,0.358,73.792,176.453,-24.902
-0.523,-0.284,0.287,83.618,169.373,-9.827
-0.421,-0.363,0.250,84.656,159.607,-1.892
-0.344,-0.407,0.225,70.923,147.034,0.854
-0.271,-0.430,0.211,44.861,134.094,-1.160
-0.218,-0.492,0.325,14.282,123.596,-6.470
-0.197,-0.506,0.581,-14.893,114.258,-16.052
-0.185,-0.412,0.806,-24.719,103.210,-27.222
-0.143,-0.330,0.860,-2.747,91.125,-33.203
-0.151,-0.286,0.767,33.508,81.482,-31.006
-0.175,-0.327,0.554,65.125,77.881,-22.705
-0.169,-0.430,0.306,82.214,81.848,-13.611
-0.143,-0.500,0.133,77.026,93.506,-8.667
-0.073,-0.519,0.083,54.443,109.009,-8.606
0.016,-0.520,0.172,25.391,123.291,-11.536
0.092,-0.517,0.354,-1.160,130.981,-16.846
0.142,-0.517,0.555,-23.010,128.784,-24.048
0.169,-0.514,0.728,-39.978,117.981,-31.189
0.176,-0.516,0.818,-46.143,101.929,-37.964
0.166,-0.519,0.812,-42.053,84.351,-44.617
0.133,-0.503,0.710,-39.612,69.946,-50.171
0.096,-0.476,0.564,-42.175,62.012,-54.382
0.049,-0.416,0.456,-52.368,62.012,-56.641
0.035,-0.348,0.440,-69.031,68.848,-56.274
0.049,-0.256,0.558,-85.938,78.308,-52.490
0.054,-0.167,0.785,-96.741,83.313,-44.983
0.053,-0.177,1.020,-94.727,78.125,-35.034
0.055,-0.257,1.156,-79.407,62.439,-26.428
0.049,-0.332,1.166,-56.763,41.565,-22.339
0.030,-0.382,1.063,-34.485,22.156,-22.766
-0.001,-0.391,0.910,-17.639,9.949,-25.146
-0.015,-0.399,0.800,-8.789,6.775,-27.466
-0.013,-0.394,0.754,-7.446,10.010,-28.625
-0.009,-0.354,0.749,-12.573,15.320,-28.625
0.002,-0.310,0.792,-20.752,19.348,-27.039
0.017,-0.272,0.864,-31.921,20.386,-23.743
0.035,-0.237,0.958,-42.480,17.395,-19.714
0.045,-0.214,1.044,-46.204,9.766,-16.357
0.042,-0.171,1.107,-41.321,-1.099,-14.282
0.042,-0.104,1.125,-29.480,-14.221,-13.000
0.037,-0.046,1.102,-12.756,-27.649,-10.559
0.029,-0.001,1.049,9.094,-38.818,-6.470
0.040,-0.011,0.998,36.499,-47.485,-1.892
0.058,-0.075,0.941,61.462,-53.894,3.357
0.072,-0.164,0.885,74.341,-58.044,7.812
0.073,-0.239,0.833,73.792,-59.692,9.766
0.068,-0.288,0.797,63.293,-58.899,9.033
0.065,-0.320,0.783,49.194,-55.115,6.287
0.054,-0.345,0.792,35.583,-49.377,3.174
0.039,-0.375,0.816,23.804,-42.114,-0.427
0.016,-0.383,0.841,12.878,-34.607,-3.357
-0.011,-0.368,0.868,3.845,-26.855,-5.676
-0.047,-0.341,0.892,-3.174,-19.836,-7.080
-0.077,-0.310,0.907,-8.789,-13.916,-6.592
-0.104,-0.277,0.927,-12.939,-9.460,-4.211
-0.119,-0.248,0.960,-13.245,-6.226,-0.366
-0.117,-0.225,0.994,-12.939,-4.883,5.371
-0.100,-0.218,1.027,-12.756,-5.920,12.085
-0.069,-0.231,1.059,-10.742,-7.996,17.944
-0.039,-0.238,1.069,-8.362,-10.864,22.156
-0.021,-0.237,1.074,-7.019,-13.916,25.146
-0.007,-0.231,1.076,-6.897,-15.930,26.794
0.001,-0.228,1.073,-6.287,-17.212,27.222
0.004,-0.229,1.060,-4.272,-16.968,26.489
0.001,-0.235,1.045,-1.831,-14.954,24.597
0.000,-0.235,1.032,-0.366,-11.841,22.461
-0.000,-0.231,1.025,-1.038,-8.423,20.630
-0.001,-0.217,1.016,-2.625,-4.761,19.104
0.000,-0.203,1.021,-3.418,-1.953,18.188
0.006,-0.187,1.025,-2.319,0.488,17.883

-0.733,-0.112,1.734,-5.859,-155.273,-35.889
-0.842,-0.102,1.683,2.869,-157.410,-35.461
-0.940,-0.139,1.629,10.132,-156.494,-35.034
-1.024,-0.149,1.597,11.108,-153.687,-34.180
-1.073,-0.173,1.624,3.174,-149.475,-32.776
-1.083,-0.207,1.709,-7.263,-144.836,-30.273
-1.112,-0.133,1.756,-11.169,-140.015,-27.832
-1.144,-0.021,1.725,-6.348,-134.521,-23.193
-1.150,0.038,1.615,5.798,-127.136,-15.198
-1.123,0.047,1.456,23.560,-116.089,-5.554
-1.077,0.019,1.309,35.706,-101.746,4.028
-1.042,-0.009,1.211,34.668,-85.938,13.794
-1.007,-0.058,1.138,24.170,-69.580,21.606
-0.988,-0.087,1.095,9.094,-53.345,26.306
-0.978,-0.091,1.098,-5.188,-37.781,27.466
-0.919,-0.086,1.158,-16.113,-24.841,25.024
-0.877,-0.095,1.244,-21.973,-15.503,20.325
-0.820,-0.104,1.296,-19.775,-10.620,13.123
-0.805,-0.135,1.277,-7.324,-9.155,4.211
-0.784,-0.195,1.187,8.057,-8.484,-4.639
-0.783,-0.245,1.003,24.109,-5.188,-14.771
-0.790,-0.278,0.763,36.133,3.906,-25.391
-0.756,-0.338,0.585,42.297,20.569,-34.851
-0.746,-0.382,0.505,40.405,41.748,-42.480
-0.779,-0.424,0.494,31.433,63.599,-47.729
-0.762,-0.489,0.526,22.644,83.801,-51.208
-0.711,-0.496,0.559,14.832,100.525,-52.307
-0.689,-0.446,0.572,7.263,113.281,-48.950
-0.677,-0.361,0.496,5.981,122.559,-41.077
-0.634,-0.330,0.406,13.184,131.165,-30.090
-0.583,-0.348,0.348,19.470,138.550,-17.273
-0.545,-0.356,0.296,18.250,142.761,-5.981
-0.488,-0.387,0.297,9.094,142.944,1.587
-0.422,-0.395,0.388,-7.324,138.794,5.615
-0.375,-0.353,0.500,-27.039,128.845,6.104
-0.331,-0.318,0.574,-38.696,114.380,4.272
-0.287,-0.322,0.616,-37.903,98.450,0.671
-0.265,-0.372,0.630,-28.992,83.313,-4.639
-0.253,-0.429,0.612,-17.090,70.618,-13.245
-0.254,-0.460,0.538,-4.333,61.157,-24.170
-0.284,-0.462,0.434,7.751,56.580,-34.363
-0.328,-0.471,0.390,14.954,56.885,-41.565
-0.367,-0.440,0.392,10.193,60.120,-43.884
-0.392,-0.376,0.427,-3.784,64.392,-40.894
-0.411,-0.293,0.466,-14.893,69.458,-34.485
-0.404,-0.244,0.501,-14.648,75.073,-26.489
-0.360,-0.264,0.533,-6.287,80.078,-18.311
-0.336,-0.285,0.541,2.258,83.496,-11.169
-0.313,-0.344,0.531,9.583,84.900,-6.653
-0.308,-0.383,0.524,12.695,85.571,-6.042
-0.296,-0.407,0.562,9.094,85.327,-8.301
-0.274,-0.369,0.607,3.967,83.740,-11.963
-0.252,-0.287,0.639,2.380,81.299,-13.733
-0.222,-0.263,0.658,6.348,78.125,-11.169
-0.204,-0.246,0.635,11.292,74.890,-5.859
-0.194,-0.247,0.592,12.268,73.181,-1.038
-0.183,-0.291,0.579,10.925,74.463,1.587
-0.171,-0.325,0.585,6.104,78.186,-0.793
-0.134,-0.350,0.622,-0.793,84.045,-8.301
-0.094,-0.354,0.675,-4.211,90.454,-20.447
-0.070,-0.362,0.678,-6.042,96.191,-33.691
-0.040,-0.374,0.654,-8.362,101.868,-47.485
0.018,-0.424,0.609,-11.902,109.375,-62.256
0.083,-0.481,0.536,-19.836,118.896,-79.041
0.127,-0.436,0.436,-34.668,130.737,-97.961
0.162,-0.351,0.404,-53.772,144.470,-116.516
0.160,-0.279,0.424,-74.524,156.067,-130.432
0.121,-0.238,0.441,-94.299,163.635,-138.367
0.087,-0.221,0.505,-109.436,168.030,-141.602
0.065,-0.175,0.635,-118.530,169.128,-140.991
0.039,-0.093,0.824,-118.042,161.743,-136.536
-0.078,-0.003,0.985,-103.149,141.296,-129.944
-0.154,-0.067,1.005,-73.547,109.131,-123.108
-0.184,-0.163,0.914,-40.405,74.341,-117.004
-0.205,-0.194,0.759,-18.677,45.593,-111.755
-0.225,-0.161,0.650,-13.000,27.405,-106.140
-0.287,-0.052,0.619,-12.085,17.395,-99.060
-0.339,-0.006,0.615,-0.732,11.841,-88.684
-0.371,-0.052,0.600,15.381,8.240,-73.853
-0.370,-0.128,0.610,19.836,6.165,-57.007
-0.321,-0.180,0.688,11.719,4.944,-41.992
-0.262,-0.196,0.836,0.183,2.441,-29.419
-0.225,-0.163,0.976,-5.005,-4.517,-18.799
-0.202,-0.082,1.052,-1.709,-15.991,-10.071
-0.138,-0.030,1.107,11.169,-29.724,-3.784
-0.078,-0.005,1.093,32.593,-42.664,0.183
-0.058,-0.005,1.011,53.284,-52.429,2.869
-0.065,-0.032,0.927,66.589,-56.946,4.211
-0.083,-0.072,0.867,68.909,-56.458,4.395
-0.102,-0.088,0.844,60.547,-51.758,4.089
-0.127,-0.095,0.850,49.988,-43.884,3.906
-0.153,-0.119,0.880,42.786,-34.424,4.028
-0.177,-0.126,0.881,39.063,-23.804,5.310
-0.194,-0.125,0.882,36.499,-12.390,8.179
-0.192,-0.141,0.916,32.227,-1.831,13.123
-0.170,-0.150,0.966,24.048,6.470,18.860
-0.139,-0.140,1.007,15.320,11.841,24.292
-0.086,-0.144,1.029,12.573,14.282,28.625
-0.047,-0.187,1.019,19.775,14.587,30.273
-0.038,-0.246,1.006,28.442,13.977,28.992
-0.055,-0.262,1.009,27.832,11.963,25.146
-0.061,-0.231,1.038,20.935,8.240,19.653
-0.054,-0.195,1.080,13.672,2.869,14.709
-0.062,-0.159,1.101,9.338,-3.418,11.841
-0.087,-0.135,1.086,9.888,-9.277,9.888
-0.109,-0.147,1.051,15.747,-13.672,8.972
-0.124,-0.173,1.026,20.203,-16.113,8.911
-0.136,-0.196,1.024,19.348,-17.151,10.254
-0.142,-0.201,1.032,15.259,-17.822,12.573
-0.147,-0.198,1.031,11.658,-18.677,15.625
-0.143,-0.198,1.022,10.071,-18.921,18.433
-0.131,-0.205,1.021,9.155,-18.311,21.484
-0.122,-0.220,1.032,8.423,-17.212,23.560
-0.114,-0.229,1.045,6.042,-15.808,24.109
-0.107,-0.219,1.050,3.418,-13.977,23.437
-0.100,-0.204,1.056,3.723,-11.902,22.400
-0.096,-0.195,1.056,5.615,-9.766,21.484
-0.094,-0.205,1.062,6.836,-8.118,21.179
-0.097,-0.215,1.067,7.141,-6.592,20.081

-0.500,-0.300,1.759,13.794,-33.081,-33.386
-0.522,-0.310,1.708,24.231,-35.400,-34.119
-0.547,-0.311,1.642,29.541,-36.438,-33.264
-0.545,-0.314,1.583,31.677,-35.645,-31.921
-0.541,-0.327,1.532,32.104,-33.569,-30.396
-0.525,-0.348,1.515,28.503,-30.396,-28.870
-0.491,-0.341,1.522,21.851,-27.954,-28.015
-0.459,-0.325,1.536,15.747,-26.367,-27.649
-0.463,-0.293,1.552,12.024,-26.001,-26.672
-0.496,-0.322,1.568,11.780,-26.123,-26.306
-0.508,-0.337,1.542,15.747,-26.184,-27.527
-0.529,-0.343,1.493,20.081,-24.597,-29.114
-0.543,-0.362,1.424,23.437,-21.240,-30.334
-0.555,-0.385,1.362,26.672,-15.869,-31.494
-0.559,-0.396,1.297,26.855,-9.155,-32.227
-0.556,-0.394,1.246,24.841,-2.258,-33.020
-0.547,-0.403,1.217,21.484,4.395,-32.898
-0.545,-0.403,1.195,17.578,10.559,-32.227
-0.536,-0.392,1.155,11.047,15.747,-31.250
-0.523,-0.373,1.112,6.226,20.020,-30.579
-0.496,-0.372,1.126,2.014,23.804,-30.518
-0.478,-0.391,1.170,-3.174,25.452,-32.227
-0.478,-0.414,1.199,-5.249,24.048,-36.011
-0.500,-0.402,1.174,-1.343,20.996,-41.687
-0.538,-0.372,1.097,5.554,18.677,-45.959
-0.590,-0.342,0.996,12.329,18.250,-46.265
-0.617,-0.355,0.924,16.418,19.958,-42.175
-0.606,-0.387,0.899,14.648,22.400,-35.156
-0.592,-0.389,0.914,7.080,24.597,-27.283
-0.568,-0.406,0.907,-0.244,25.818,-20.020
-0.561,-0.415,0.841,-2.625,27.527,-15.259
-0.556,-0.406,0.767,-2.625,32.043,-12.817
-0.544,-0.414,0.740,-3.174,39.307,-11.902
-0.531,-0.423,0.736,-5.371,47.180,-12.451
-0.497,-0.419,0.753,-10.193,53.955,-13.550
-0.466,-0.389,0.766,-17.700,59.387,-14.709
-0.350,-0.370,0.720,-21.912,63.904,-15.503
-0.464,-0.360,0.822,-23.132,68.970,-16.663
-0.440,-0.372,0.711,-14.282,70.801,-20.386
-0.417,-0.338,0.671,-6.470,72.021,-22.278
-0.418,-0.296,0.639,-12.268,73.303,-19.287
-0.374,-0.298,0.611,-20.752,73.792,-14.648
-0.341,-0.343,0.647,-27.466,74.646,-11.414
-0.332,-0.363,0.703,-33.142,74.219,-11.780
-0.330,-0.373,0.750,-34.851,71.594,-15.930
-0.336,-0.377,0.794,-31.982,67.322,-21.545
-0.349,-0.368,0.836,-28.809,61.523,-26.672
-0.364,-0.349,0.846,-25.818,55.054,-30.151
-0.371,-0.350,0.823,-20.508,48.889,-31.372
-0.381,-0.352,0.777,-15.442,44.250,-29.846
-0.387,-0.354,0.726,-12.939,41.870,-26.123
-0.384,-0.350,0.682,-11.414,41.809,-20.508
-0.385,-0.341,0.661,-10.986,43.274,-13.916
-0.371,-0.331,0.683,-13.489,44.861,-6.897
-0.343,-0.318,0.716,-18.921,44.495,-1.221
-0.329,-0.330,0.736,-23.804,42.969,2.930
-0.315,-0.344,0.744,-24.048,41.687,4.089
-0.293,-0.363,0.757,-22.400,40.955,2.686
-0.289,-0.343,0.764,-21.240,39.978,0.916
-0.276,-0.318,0.774,-20.142,39.063,0.305
-0.258,-0.308,0.796,-18.738,37.476,1.587
-0.253,-0.287,0.803,-16.418,35.339,4.211
-0.255,-0.268,0.793,-12.329,32.532,7.751
-0.240,-0.240,0.766,-7.507,28.992,12.207
-0.207,-0.217,0.747,-6.592,24.597,18.372
-0.189,-0.202,0.743,-8.728,19.958,26.062
-0.170,-0.208,0.744,-8.789,14.526,32.410
-0.160,-0.210,0.790,-6.592,9.216,35.767
-0.121,-0.205,0.872,-7.935,2.686,35.095
-0.069,-0.197,0.915,-9.644,-5.188,30.457
-0.029,-0.213,0.899,-6.409,-12.573,23.132
-0.031,-0.241,0.847,-0.305,-17.273,13.916
-0.069,-0.296,0.768,3.052,-18.616,5.249
-0.138,-0.330,0.690,2.136,-15.686,-3.906
-0.186,-0.368,0.640,-0.732,-8.972,-13.977
-0.198,-0.364,0.607,-4.700,-0.366,-24.170
-0.198,-0.326,0.604,-11.658,9.155,-30.762
-0.224,-0.272,0.646,-22.522,18.005,-31.677
-0.265,-0.198,0.736,-32.715,24.658,-28.809
-0.273,-0.133,0.799,-36.133,28.198,-23.804
-0.228,-0.117,0.823,-30.212,28.625,-18.250
-0.186,-0.148,0.828,-22.827,27.466,-12.634
-0.182,-0.193,0.819,-18.005,25.269,-10.010
-0.187,-0.245,0.809,-12.207,22.522,-12.390
-0.182,-0.291,0.793,-4.822,19.836,-18.982
-0.192,-0.292,0.741,-1.892,17.639,-26.855
-0.219,-0.248,0.704,-3.906,16.663,-32.959
-0.233,-0.207,0.707,-6.348,17.273,-35.278
-0.231,-0.187,0.722,-8.545,18.738,-33.813
-0.234,-0.179,0.735,-9.094,20.386,-30.151
-0.244,-0.193,0.752,-7.629,22.400,-26.245
-0.269,-0.185,0.753,-4.883,24.536,-23.682
-0.268,-0.202,0.789,0.183,26.428,-23.010
-0.260,-0.218,0.829,6.958,27.283,-23.743
-0.263,-0.216,0.834,11.414,26.367,-24.170
-0.257,-0.196,0.808,13.367,24.597,-22.949
-0.248,-0.190,0.788,13.489,23.254,-19.836
-0.236,-0.182,0.784,11.963,22.400,-15.198
-0.206,-0.174,0.805,9.399,21.423,-10.742
-0.173,-0.169,0.831,7.751,19.653,-7.263
-0.154,-0.151,0.839,8.118,16.907,-5.127
-0.151,-0.152,0.836,11.963,13.672,-4.395
-0.132,-0.205,0.852,18.738,9.766,-5.676
-0.117,-0.255,0.861,20.264,4.272,-8.057
-0.134,-0.258,0.858,13.000,-2.136,-10.742
-0.172,-0.231,0.859,4.089,-7.690,-12.878
-0.194,-0.199,0.856,-0.977,-11.536,-13.062
-0.201,-0.186,0.861,-3.296,-13.245,-10.742
-0.208,-0.160,0.867,-6.042,-13.123,-6.653
-0.203,-0.142,0.884,-6.653,-11.719,-2.258
-0.177,-0.149,0.911,-4.822,-9.888,1.953
-0.148,-0.173,0.934,-3.540,-8.545,4.761
-0.131,-0.191,0.952,-3.052,-7.690,5.127
-0.130,-0.191,0.954,-2.502,-7.080,3.235
-0.139,-0.193,0.943,-0.977,-5.798,-0.122
-0.150,-0.187,0.938,-0.610,-4.578,-3.052
-0.163,-0.182,0.948,-2.502,-2.930,-5.188
-0.174,-0.168,0.973,-5.981,-1.465,-6.470
-0.171,-0.149,1.006,-8.423,-0.244,-6.775

-0.155,0.298,2.275,-18.677,-187.805,-28.137
-0.177,0.355,2.471,-41.382,-197.876,-16.663
-0.236,0.432,2.706,-54.565,-204.163,-5.737
-0.416,0.528,2.979,-43.579,-211.060,-1.465
-0.602,0.391,3.085,-3.174,-225.403,-7.690
-0.767,0.225,2.896,44.922,-244.629,-27.893
-0.968,0.211,2.625,68.420,-256.836,-48.157
-1.213,0.143,2.394,69.031,-254.639,-53.345
-1.397,0.094,2.160,54.932,-236.755,-44.067
-1.495,0.204,1.994,27.527,-203.369,-25.085
-1.464,0.271,1.963,-0.549,-159.485,3.113
-1.373,0.338,1.987,-29.480,-113.770,36.682
-1.231,0.416,1.889,-44.800,-68.848,68.115
-1.126,0.489,1.754,-42.419,-23.926,91.919
-1.073,0.439,1.520,-27.161,16.663,102.112
-0.956,0.287,1.244,-0.488,51.819,93.933
-0.767,0.099,1.101,11.963,80.383,71.777
-0.578,0.038,1.096,0.977,99.060,41.504
-0.498,0.009,1.091,-19.592,106.812,7.935
-0.517,-0.012,1.012,-29.846,111.572,-24.597
-0.490,-0.051,0.922,-20.813,120.361,-54.260
-0.450,-0.047,0.837,-11.719,132.568,-76.904
-0.417,-0.060,0.718,-4.700,146.301,-89.355
-0.384,-0.075,0.697,-6.226,159.302,-95.825
-0.370,-0.062,0.731,-14.343,167.480,-102.600
-0.418,-0.063,0.753,-10.620,166.443,-114.441
-0.407,-0.063,0.755,5.920,153.442,-129.517
-0.414,-0.031,0.739,15.503,129.028,-139.954
-0.504,-0.057,0.545,13.428,97.473,-139.954
-0.630,-0.235,0.494,-5.127,69.946,-132.263
-0.691,-0.440,0.431,-16.785,50.537,-129.944
-0.798,-0.456,0.262,-18.616,42.847,-134.827
-0.931,-0.397,0.071,-17.334,52.917,-139.709
-0.952,-0.355,-0.072,-12.024,80.811,-141.357
-0.942,-0.298,-0.077,-9.033,119.629,-139.099
-0.999,-0.298,0.035,-4.395,160.706,-133.850
-1.026,-0.177,0.203,11.902,194.763,-124.084
-1.023,-0.049,0.383,38.818,212.219,-105.286
-0.993,-0.144,0.408,73.303,207.703,-80.322
-0.938,-0.268,0.322,111.023,185.242,-59.692
-0.890,-0.419,0.235,134.888,151.245,-50.659
-0.876,-0.434,0.022,135.010,114.136,-47.546
-0.845,-0.401,-0.144,117.737,85.205,-44.434
-0.754,-0.403,-0.197,107.544,69.763,-40.588
-0.666,-0.367,-0.299,108.887,63.354,-36.133
-0.563,-0.336,-0.347,99.670,63.538,-25.940
-0.470,-0.306,-0.324,84.595,67.383,-15.015
-0.358,-0.354,-0.261,70.496,70.862,-10.742
-0.208,-0.464,-0.226,45.837,72.144,-16.113
-0.044,-0.639,-0.290,12.268,76.172,-33.081
0.103,-0.701,-0.449,-19.531,92.346,-61.035
0.171,-0.510,-0.273,-43.762,125.244,-93.140
0.052,-0.132,0.418,-46.936,156.128,-117.126
-0.115,-0.025,0.863,-14.954,149.536,-121.033
-0.195,-0.290,0.726,24.963,101.501,-109.070
-0.237,-0.650,0.116,30.762,43.945,-100.098
-0.256,-0.755,-0.276,-25.696,12.695,-100.586
-0.225,-0.649,-0.046,-124.939,14.587,-101.318
-0.207,-0.548,0.185,-206.665,27.161,-98.328
-0.140,-0.487,0.207,-247.375,42.664,-95.703
-0.030,-0.147,0.742,-261.475,66.650,-95.276
-0.034,0.258,1.756,-240.540,74.097,-83.008
-0.165,0.091,1.930,-164.001,35.889,-56.274
-0.199,-0.244,1.328,-76.050,-20.569,-38.147
-0.220,-0.243,0.766,-39.978,-48.523,-33.569
-0.210,-0.061,0.700,-39.124,-36.682,-26.978
-0.146,0.021,0.896,-27.588,-7.996,-13.794
-0.044,-0.032,1.011,3.662,12.085,-2.014
0.073,-0.141,0.981,34.058,17.273,3.906
0.118,-0.241,0.917,42.725,13.123,4.517
0.082,-0.144,0.957,34.668,8.240,0.366
0.014,0.015,1.067,35.156,3.662,-1.953
-0.029,0.051,1.121,52.063,-4.028,2.808
-0.049,-0.033,1.112,71.899,-15.747,12.268
-0.044,-0.108,1.019,82.764,-28.992,19.470
-0.057,-0.114,0.908,80.811,-37.964,24.109
-0.083,-0.101,0.830,74.036,-38.879,27.649
-0.088,-0.077,0.804,66.711,-34.302,30.334
-0.060,-0.073,0.831,58.594,-27.588,32.104
-0.016,-0.106,0.869,51.025,-22.339,32.837
-0.008,-0.130,0.893,43.396,-20.020,32.227
-0.025,-0.148,0.890,35.583,-19.470,29.663
-0.034,-0.188,0.873,26.978,-18.616,25.513
-0.059,-0.208,0.894,14.526,-15.198,21.729
-0.087,-0.176,0.963,4.028,-10.010,18.616
-0.093,-0.098,1.000,1.892,-5.615,16.296
-0.102,-0.026,1.006,3.479,-2.991,17.883
-0.090,-0.003,1.017,4.761,-1.404,23.621
-0.047,-0.012,1.053,4.883,-1.770,28.687
0.001,-0.020,1.076,2.625,-4.944,30.151
0.025,-0.018,1.097,-2.991,-10.742,28.503
0.028,-0.027,1.145,-8.972,-17.395,24.597
0.027,-0.004,1.173,-11.841,-23.621,18.799
0.012,0.016,1.196,-9.949,-28.137,12.817
-0.008,0.007,1.199,-4.333,-29.846,7.568
-0.018,0.012,1.167,1.160,-28.503,3.906
-0.117,0.038,1.097,7.874,-23.560,3.845
-0.167,-0.001,1.042,14.038,-15.442,6.531
-0.125,-0.042,0.994,22.339,-6.470,6.958
-0.115,-0.061,0.956,26.428,1.404,6.775
-0.117,-0.064,0.968,19.836,8.484,7.812
-0.101,-0.070,1.038,8.484,12.756,9.583
-0.078,-0.078,1.123,0.000,12.939,10.437
-0.071,-0.083,1.185,-5.371,8.911,10.498
-0.070,-0.069,1.219,-7.629,3.296,10.071
-0.070,-0.042,1.220,-5.188,-1.892,9.583
-0.081,-0.011,1.168,2.380,-5.493,9.338
-0.084,-0.001,1.100,11.414,-6.714,10.132
-0.095,-0.005,1.049,19.104,-5.005,12.146
-0.096,-0.018,1.019,23.621,-3.174,14.221
-0.079,-0.033,1.015,23.437,-2.747,15.930
-0.056,-0.066,1.025,19.226,-3.723,16.907
-0.051,-0.112,1.048,12.878,-6.470,16.846
-0.053,-0.129,1.076,5.615,-9.460,15.320
-0.062,-0.110,1.090,0.244,-11.475,13.794
-0.080,-0.077,1.087,-0.610,-12.085,13.977
-0.105,-0.068,1.089,1.099,-11.230,15.808
-0.098,-0.064,1.083,3.174,-9.888,17.578
-0.087,-0.052,1.058,5.859,-8.362,18.555
