aX,aY,aZ,gX,gY,gZ
0.004,-0.704,1.792,30.273,94.910,-9.399
-0.064,-0.781,1.746,33.630,98.816,0.305
-0.124,-0.824,1.731,38.452,103.333,13.611
-0.166,-0.897,1.668,41.626,107.971,29.846
-0.222,-0.961,1.646,42.175,112.854,47.729
-0.289,-0.897,1.597,37.048,116.638,64.697
-0.322,-0.844,1.435,29.541,120.483,79.468
-0.334,-0.838,1.274,22.522,127.808,88.440
-0.347,-0.775,1.134,10.925,137.207,88.379
-0.326,-0.724,0.979,-1.953,145.935,83.374
-0.268,-0.628,0.878,-14.343,152.344,77.759
-0.292,-0.468,0.736,-26.550,156.250,75.500
-0.304,-0.331,0.665,-36.438,158.569,77.820
-0.267,-0.193,0.550,-41.016,156.799,80.933
-0.250,-0.035,0.493,-42.114,152.039,84.106
-0.231,0.110,0.410,-39.001,144.409,88.562
-0.203,0.224,0.376,-29.114,135.986,96.375
-0.149,0.310,0.408,-14.465,126.709,106.812
-0.120,0.253,0.422,0.305,114.563,117.798
-0.185,0.214,0.486,7.935,100.159,125.427
-0.267,0.251,0.551,6.226,83.740,126.343
-0.291,0.267,0.479,0.488,67.078,122.314
-0.292,0.314,0.423,-4.089,55.908,114.807
-0.276,0.354,0.354,-8.423,51.453,105.652
-0.269,0.434,0.318,-12.756,53.040,95.764
-0.248,0.497,0.274,-16.907,58.716,85.754
-0.173,0.554,0.245,-17.395,65.735,77.637
-0.103,0.611,0.265,-11.963,72.266,72.266
-0.053,0.622,0.292,-2.380,75.500,71.106
-0.002,0.590,0.349,10.376,74.158,73.059
0.066,0.560,0.417,22.095,66.895,74.280
0.091,0.506,0.444,27.893,55.237,74.097
0.070,0.472,0.525,30.090,43.701,72.388
0.096,0.408,0.536,29.480,31.372,69.214
0.150,0.370,0.539,21.240,20.325,62.988
0.159,0.405,0.543,7.629,12.329,53.467
0.153,0.452,0.558,-4.761,6.287,43.762
0.148,0.496,0.567,-11.536,2.380,37.292
0.193,0.473,0.582,-10.437,-0.061,34.851
0.255,0.424,0.607,-6.836,-0.916,34.302
0.258,0.425,0.651,-6.531,-0.671,32.166
0.256,0.438,0.685,-6.287,-0.549,29.907
0.294,0.421,0.715,-4.150,-1.404,28.809
0.305,0.413,0.746,-1.648,-2.686,26.855
0.301,0.398,0.787,-0.671,-4.700,24.231
0.310,0.384,0.805,-0.366,-7.874,20.569
0.332,0.365,0.830,-0.854,-10.742,16.602
0.375,0.330,0.844,-1.038,-13.184,12.634
0.401,0.304,0.867,-2.319,-14.709,8.972
0.396,0.312,0.893,-5.249,-15.930,5.798
0.392,0.323,0.917,-5.371,-16.296,3.967
0.424,0.277,0.929,-3.052,-16.113,4.333
0.441,0.248,0.937,-2.808,-15.137,3.784
0.436,0.232,0.948,-3.906,-13.855,2.014
0.432,0.223,0.953,-4.333,-12.878,0.183
0.428,0.202,0.956,-5.188,-12.146,-1.404
0.432,0.196,0.951,-6.470,-11.902,-3.784
0.423,0.194,0.952,-7.324,-11.536,-5.432
0.410,0.187,0.972,-6.287,-11.658,-5.676
0.422,0.163,0.963,-4.150,-12.146,-4.639
0.425,0.143,0.956,-1.953,-12.878,-3.296
0.415,0.135,0.959,-0.305,-13.367,-2.136
0.402,0.130,0.956,1.343,-13.611,-0.977
0.405,0.119,0.965,3.235,-13.733,0.000
0.411,0.089,0.969,4.150,-13.916,0.671
0.397,0.077,0.988,3.540,-14.343,0.366
0.362,0.074,1.000,1.648,-14.893,-0.916
0.340,0.067,0.994,-0.732,-15.381,-2.075
0.328,0.068,0.982,-3.479,-15.015,-4.089
0.321,0.076,0.980,-5.493,-13.123,-6.348
0.325,0.074,0.978,-7.019,-10.803,-8.423
0.332,0.085,0.965,-8.179,-8.606,-9.338
0.318,0.116,0.962,-8.179,-6.653,-8.789
0.319,0.122,0.959,-5.859,-5.066,-6.714
0.333,0.106,0.956,-2.991,-3.906,-4.578
0.326,0.093,0.962,-1.770,-3.357,-3.113
0.324,0.080,0.967,-1.282,-2.869,-2.441
0.340,0.054,0.961,-1.343,-2.136,-1.770
0.340,0.046,0.960,-2.319,-0.793,-1.038
0.337,0.051,0.956,-3.418,0.488,-0.366
0.351,0.049,0.948,-4.395,1.343,0.244
0.362,0.061,0.939,-6.104,2.136,0.000
0.368,0.080,0.935,-7.690,2.808,-0.732
0.378,0.093,0.930,-7.690,3.296,-0.977
0.382,0.096,0.932,-6.958,2.991,-0.916
0.378,0.093,0.936,-6.592,2.136,-0.610
0.374,0.086,0.944,-5.676,1.099,0.000
0.379,0.083,0.952,-4.639,-0.122,1.221
0.382,0.083,0.954,-4.028,-1.038,2.563
0.374,0.088,0.947,-3.845,-1.160,3.906
0.364,0.090,0.944,-2.808,-0.549,5.127
0.360,0.086,0.942,-1.953,0.244,6.042
0.355,0.080,0.945,-1.953,0.671,5.981
0.349,0.078,0.942,-2.380,0.916,5.432
0.346,0.083,0.948,-2.380,1.038,4.761
0.352,0.078,0.949,-2.319,1.282,3.906
0.362,0.073,0.945,-2.563,1.648,3.479
0.360,0.079,0.940,-2.991,2.075,3.418
0.359,0.079,0.936,-2.869,2.747,3.967
0.366,0.078,0.935,-2.380,3.235,4.639
0.368,0.086,0.932,-2.441,3.662,5.310
0.368,0.099,0.927,-2.686,3.845,5.920
0.362,0.101,0.926,-2.747,3.784,6.592
0.361,0.106,0.926,-2.319,3.723,6.531
0.374,0.091,0.923,-1.648,3.479,6.653
0.376,0.093,0.923,-1.709,3.174,6.531
0.364,0.109,0.917,-2.075,3.113,6.653
0.364,0.121,0.910,-1.221,3.174,7.202
0.362,0.122,0.910,0.488,3.357,7.812
0.369,0.115,0.908,1.953,3.723,8.118
0.381,0.083,0.918,2.258,3.906,8.423
0.381,0.079,0.920,0.916,3.174,7.935
0.369,0.091,0.915,-0.732,2.075,7.385
0.359,0.109,0.919,-1.282,1.160,7.385
0.378,0.108,0.916,-0.122,0.305,7.874
0.392,0.091,0.908,-0.366,-0.305,8.179
0.378,0.100,0.918,-2.075,-0.183,7.629
0.370,0.110,0.920,-2.991,0.000,7.202
0.373,0.111,0.917,-3.052,0.610,7.568

-0.428,-1.172,0.968,-11.841,69.092,98.999
-0.437,-1.203,1.002,-13.489,66.650,105.957
-0.443,-1.192,1.048,-12.939,62.439,114.502
-0.477,-1.120,1.062,-12.878,58.777,125.916
-0.535,-1.005,1.042,-11.658,58.228,141.602
-0.582,-0.873,1.019,-9.766,61.829,160.645
-0.615,-0.742,1.005,-9.583,67.871,179.687
-0.641,-0.603,1.006,-10.193,73.486,196.045
-0.650,-0.456,0.996,-12.024,76.172,207.886
-0.715,-0.274,0.968,-15.930,76.294,215.271
-0.780,-0.063,0.967,-18.433,75.073,219.238
-0.821,0.104,0.917,-18.311,74.036,220.276
-0.818,0.173,0.935,-15.198,75.073,217.407
-0.805,0.208,0.971,-15.381,76.660,209.473
-0.783,0.235,0.977,-20.203,77.271,198.975
-0.763,0.266,0.965,-26.733,79.285,190.857
-0.739,0.281,0.947,-31.982,83.862,187.317
-0.726,0.323,0.908,-33.325,90.637,189.087
-0.685,0.351,0.884,-26.917,98.450,197.144
-0.663,0.345,0.856,-15.808,105.164,208.862
-0.618,0.339,0.798,-6.409,110.474,219.727
-0.642,0.386,0.760,-0.122,116.699,226.501
-0.612,0.459,0.683,5.005,124.390,229.309
-0.588,0.480,0.642,4.883,132.385,227.783
-0.555,0.502,0.672,-6.775,136.169,218.140
-0.503,0.513,0.714,-23.499,131.287,197.327
-0.417,0.534,0.736,-35.278,119.690,168.274
-0.294,0.579,0.682,-38.391,104.248,139.343
-0.276,0.612,0.663,-36.743,89.478,119.934
-0.199,0.616,0.628,-30.457,77.698,112.671
-0.110,0.552,0.628,-21.973,69.885,111.328
-0.051,0.540,0.626,-16.479,65.796,110.168
-0.064,0.559,0.622,-12.939,63.965,110.229
-0.048,0.558,0.598,-11.169,63.354,111.572
-0.044,0.540,0.599,-13.245,61.523,109.009
-0.033,0.552,0.598,-18.250,57.495,100.220
-0.018,0.581,0.596,-24.170,51.514,89.172
0.031,0.583,0.591,-30.273,45.593,77.759
0.110,0.579,0.599,-36.133,40.833,66.345
0.202,0.571,0.629,-38.086,37.598,54.871
0.278,0.544,0.657,-37.292,34.058,44.922
0.339,0.527,0.675,-36.316,29.480,36.926
0.394,0.522,0.675,-33.752,24.597,30.518
0.389,0.509,0.676,-28.015,20.630,25.818
0.397,0.473,0.671,-22.034,18.005,23.865
0.395,0.435,0.700,-16.541,16.724,23.926
0.388,0.407,0.726,-12.512,14.893,24.658
0.376,0.387,0.743,-10.071,12.207,25.574
0.348,0.378,0.763,-8.850,9.155,25.452
0.336,0.357,0.774,-7.080,5.920,23.071
0.331,0.336,0.797,-4.456,2.747,18.250
0.320,0.301,0.819,-2.319,-0.427,12.817
0.309,0.278,0.846,-1.831,-2.991,7.996
0.305,0.251,0.857,-3.052,-5.310,3.906
0.279,0.230,0.865,-5.188,-6.775,0.793
0.307,0.223,0.895,-8.606,-7.324,-0.916
0.315,0.201,0.891,-6.958,-6.470,-1.648
0.317,0.173,0.892,-4.272,-4.517,-2.075
0.325,0.159,0.904,-4.150,-2.808,-2.136
0.327,0.143,0.914,-3.662,-2.197,-1.709
0.309,0.134,0.912,-4.028,-2.869,-1.465
0.288,0.126,0.912,-4.272,-4.211,-1.526
0.275,0.121,0.910,-4.272,-5.066,-2.014
0.269,0.113,0.914,-4.028,-5.005,-2.808
0.267,0.097,0.921,-3.540,-4.761,-3.906
0.284,0.091,0.927,-3.845,-4.517,-4.822
0.294,0.084,0.937,-4.578,-4.272,-5.127
0.304,0.070,0.939,-4.639,-4.150,-4.822
0.318,0.060,0.944,-4.822,-3.418,-3.601
0.333,0.052,0.943,-5.005,-2.441,-1.770
0.360,0.042,0.951,-7.446,-1.526,0.793
0.376,0.073,0.965,-10.559,-0.732,3.784
0.354,0.081,0.936,-8.728,0.183,6.531
0.338,0.099,0.922,-7.935,1.587,8.606
0.339,0.123,0.917,-8.545,3.479,9.949
0.311,0.131,0.891,-8.362,4.333,10.254
0.338,0.151,0.895,-10.620,3.906,9.949
0.363,0.151,0.903,-10.803,3.296,9.338
0.395,0.146,0.899,-8.118,2.319,6.958
0.379,0.140,0.902,-5.981,0.549,3.662
0.375,0.135,0.906,-4.211,-1.343,1.160
0.376,0.120,0.910,-2.991,-2.991,0.610
0.375,0.110,0.912,-2.197,-3.662,0.732
0.366,0.102,0.911,-1.587,-3.540,0.854
0.364,0.100,0.916,-1.648,-3.052,1.465
0.362,0.104,0.925,-1.770,-2.686,2.441
0.360,0.110,0.927,-1.709,-2.930,3.296
0.356,0.115,0.928,-1.465,-3.235,4.089
0.360,0.119,0.932,-1.099,-3.235,4.700
0.360,0.117,0.936,-1.099,-3.113,5.188
0.357,0.117,0.937,-1.770,-2.930,5.310
0.347,0.115,0.933,-2.197,-2.686,5.127
0.332,0.126,0.930,-2.625,-2.441,5.127
0.324,0.126,0.928,-2.136,-2.136,5.188
0.324,0.120,0.925,-1.221,-1.953,5.127
0.319,0.116,0.927,-0.793,-2.014,4.517
0.321,0.115,0.935,-0.549,-2.380,3.845
0.327,0.109,0.942,-0.183,-2.747,3.479
0.315,0.108,0.930,-0.122,-3.113,3.418
0.338,0.113,0.954,-1.526,-3.174,4.333
0.332,0.115,0.950,-0.854,-3.479,5.310
0.322,0.120,0.946,1.404,-3.296,5.493
0.319,0.124,0.946,0.977,-2.502,5.493
0.316,0.120,0.950,0.488,-1.587,5.371
0.314,0.116,0.945,-0.854,-1.160,4.700
0.321,0.113,0.942,-1.709,-0.916,4.089
0.328,0.112,0.939,-2.319,-0.427,3.723
0.332,0.108,0.934,-2.258,-0.061,3.723
0.332,0.104,0.932,-1.770,0.000,4.150
0.329,0.105,0.936,-1.343,-0.122,5.310
0.309,0.098,0.922,-0.549,-0.671,6.653
0.328,0.107,0.939,-1.770,-1.404,8.362
0.305,0.115,0.939,-2.319,-2.014,9.827
0.297,0.134,0.934,-0.244,-2.136,11.108
0.293,0.134,0.940,1.404,-1.526,11.780
0.295,0.135,0.952,1.770,-0.916,11.169
0.299,0.135,0.967,0.977,-0.732,9.460
0.298,0.135,0.971,0.916,-1.160,7.324
0.282,0.130,0.972,0.549,-1.160,5.493

-0.740,-0.586,1.243,-5.188,45.654,16.541
-0.764,-0.611,1.300,-3.235,48.889,19.592
-0.784,-0.623,1.358,-4.456,49.866,22.034
-0.794,-0.632,1.394,-9.583,49.988,22.400
-0.800,-0.624,1.426,-16.968,51.575,20.813
-0.798,-0.628,1.443,-24.231,55.969,19.470
-0.783,-0.627,1.451,-32.410,63.843,19.226
-0.771,-0.629,1.439,-39.429,74.158,19.592
-0.749,-0.653,1.396,-43.945,85.754,20.996
-0.732,-0.692,1.364,-49.805,97.595,23.437
-0.722,-0.692,1.356,-58.289,106.262,26.794
-0.713,-0.705,1.311,-61.646,109.070,30.945
-0.726,-0.711,1.267,-56.519,108.948,35.400
-0.720,-0.740,1.258,-45.837,109.436,41.748
-0.690,-0.805,1.299,-32.715,109.741,49.683
-0.669,-0.853,1.333,-23.621,107.788,57.983
-0.682,-0.888,1.338,-16.907,104.797,67.017
-0.706,-0.910,1.345,-10.986,104.004,78.552
-0.716,-0.924,1.355,-6.897,105.713,90.881
-0.722,-0.913,1.328,-4.639,108.887,103.455
-0.710,-0.866,1.308,-1.587,114.197,117.249
-0.675,-0.835,1.285,1.343,120.300,132.385
-0.632,-0.792,1.278,1.099,125.977,146.545
-0.602,-0.739,1.266,-0.366,129.150,158.875
-0.610,-0.685,1.206,-2.136,129.395,169.250
-0.658,-0.598,1.129,-4.333,129.150,178.955
-0.716,-0.505,1.062,-5.066,129.517,187.866
-0.739,-0.423,1.024,-3.845,129.578,193.848
-0.739,-0.336,1.003,-3.052,127.808,195.801
-0.742,-0.258,0.993,-3.296,124.878,196.167
-0.737,-0.172,0.978,-5.432,121.338,197.266
-0.705,-0.068,0.946,-9.521,118.652,200.073
-0.662,0.042,0.933,-12.085,117.493,204.224
-0.623,0.136,0.914,-11.597,117.310,209.473
-0.618,0.241,0.834,-8.057,118.713,214.661
-0.663,0.353,0.758,-2.747,122.314,219.360
-0.664,0.431,0.694,2.075,126.038,220.337
-0.642,0.487,0.673,5.737,126.709,213.013
-0.610,0.551,0.641,7.385,122.742,199.036
-0.548,0.543,0.603,9.277,116.089,183.105
-0.489,0.529,0.630,9.094,108.887,166.626
-0.432,0.543,0.640,5.920,99.854,151.672
-0.372,0.517,0.607,5.371,90.576,139.893
-0.302,0.468,0.553,7.751,86.182,132.446
-0.192,0.413,0.548,12.085,89.294,128.052
-0.097,0.367,0.572,18.921,94.482,126.282
-0.107,0.356,0.535,22.400,96.375,127.319
-0.122,0.406,0.473,21.667,95.459,130.371
-0.122,0.451,0.454,23.560,93.567,130.676
-0.130,0.466,0.401,28.809,89.905,125.183
-0.142,0.465,0.363,34.119,85.999,117.493
-0.184,0.493,0.368,33.630,81.299,111.877
-0.135,0.511,0.365,30.029,73.853,109.375
-0.046,0.528,0.391,30.090,63.965,106.689
0.011,0.474,0.413,44.434,53.101,100.342
0.019,0.379,0.440,66.589,44.189,91.370
-0.048,0.406,0.493,79.163,38.879,86.060
0.017,0.261,0.523,84.839,36.377,92.468
0.075,0.214,0.569,91.919,37.720,104.797
0.064,0.171,0.566,98.022,41.931,115.845
0.022,0.210,0.544,103.577,48.523,130.188
-0.073,0.268,0.543,106.812,55.359,145.752
-0.067,0.273,0.510,106.323,59.875,157.837
-0.062,0.287,0.518,97.046,62.561,163.696
-0.000,0.345,0.553,82.520,62.439,162.903
-0.003,0.313,0.585,71.411,58.655,157.288
0.082,0.344,0.623,57.739,51.208,151.428
0.140,0.341,0.586,37.903,41.199,149.536
0.191,0.353,0.600,18.066,34.058,147.217
0.307,0.412,0.594,7.751,29.053,141.113
0.451,0.373,0.618,3.845,26.489,133.789
0.538,0.322,0.652,10.803,24.170,123.474
0.571,0.315,0.665,15.381,22.400,110.901
0.480,0.370,0.708,15.747,21.179,98.816
0.306,0.438,0.729,17.700,20.447,90.942
0.269,0.454,0.749,20.447,19.470,87.708
0.275,0.450,0.779,19.775,16.968,83.069
0.324,0.466,0.819,17.334,11.108,71.899
0.365,0.447,0.864,14.404,2.258,56.580
0.332,0.420,0.871,13.000,-7.080,40.405
0.339,0.384,0.893,8.484,-14.221,26.978
0.359,0.352,0.929,2.197,-18.188,17.456
0.391,0.310,0.961,-3.662,-19.836,10.559
0.386,0.271,0.983,-9.216,-20.081,5.310
0.384,0.243,0.975,-15.320,-19.104,2.075
0.370,0.226,0.964,-19.409,-16.541,0.244
0.356,0.197,0.955,-18.982,-12.512,-0.549
0.347,0.171,0.961,-17.212,-9.216,-1.099
0.344,0.149,0.976,-16.174,-9.033,-2.380
0.339,0.139,0.988,-16.541,-11.780,-5.249
0.324,0.125,0.992,-17.090,-16.357,-9.155
0.316,0.115,0.991,-17.517,-20.264,-13.916
0.328,0.097,0.993,-16.968,-21.484,-17.883
0.343,0.074,1.008,-16.663,-20.630,-20.874
0.346,0.057,1.015,-17.090,-19.287,-22.156
0.347,0.037,1.011,-16.296,-17.395,-22.278
0.359,0.028,1.015,-15.442,-14.832,-21.606
0.371,0.019,1.016,-14.465,-12.634,-20.264
0.369,-0.005,1.021,-12.817,-10.742,-18.982
0.370,-0.011,1.016,-12.756,-9.888,-18.433
0.379,-0.013,1.010,-12.512,-9.155,-18.127
0.378,-0.027,1.011,-11.353,-8.789,-17.639
0.374,-0.038,1.007,-11.169,-9.155,-17.456
0.380,-0.044,1.001,-11.963,-9.888,-17.456
0.376,-0.038,1.012,-12.695,-10.132,-17.090
0.371,-0.054,1.009,-12.146,-10.071,-16.296
0.373,-0.066,1.006,-12.573,-8.606,-15.381
0.382,-0.060,1.007,-15.137,-6.104,-13.916
0.375,-0.065,1.001,-18.433,-2.930,-11.475
0.378,-0.047,0.975,-20.996,0.305,-8.789
0.372,-0.032,0.964,-22.278,4.089,-6.042
0.367,-0.022,0.948,-21.912,7.141,-3.662
0.371,0.002,0.937,-21.362,9.216,-1.282
0.361,0.011,0.935,-21.057,10.010,0.610
0.355,0.028,0.924,-20.081,8.789,1.465
0.350,0.050,0.923,-19.043,6.897,1.282
0.347,0.055,0.924,-17.334,4.456,0.488
0.336,0.060,0.923,-16.541,1.831,-1.709
0.330,0.066,0.913,-16.968,0.183,-4.089

-0.625,-0.765,1.153,-0.488,-32.410,-49.927
-0.618,-0.803,1.143,-4.395,-22.827,-44.556
-0.610,-0.816,1.153,-7.385,-12.695,-41.077
-0.586,-0.828,1.164,-10.986,-4.822,-40.039
-0.613,-0.830,1.147,-12.512,0.122,-39.368
-0.599,-0.827,1.135,-16.235,3.540,-37.048
-0.569,-0.829,1.128,-19.226,7.446,-33.081
-0.557,-0.808,1.109,-17.761,11.536,-28.931
-0.555,-0.812,1.095,-13.794,16.235,-23.254
-0.536,-0.825,1.089,-10.193,20.691,-16.418
-0.554,-0.842,1.106,-8.057,23.560,-10.681
-0.568,-0.861,1.092,-6.226,23.987,-6.592
-0.555,-0.866,1.097,-2.136,24.048,-4.089
-0.569,-0.882,1.092,-1.221,24.536,-0.427
-0.586,-0.878,1.102,-0.671,26.672,4.333
-0.590,-0.913,1.112,0.000,30.090,9.521
-0.614,-0.923,1.135,-4.639,33.630,12.817
-0.633,-0.935,1.131,-10.010,36.560,13.000
-0.639,-0.984,1.115,-13.550,40.283,11.780
-0.639,-1.033,1.094,-17.822,44.983,9.216
-0.639,-1.064,1.060,-24.536,51.331,7.080
-0.654,-1.078,1.070,-28.931,58.350,7.874
-0.641,-1.105,1.059,-29.175,63.721,12.817
-0.621,-1.133,1.051,-28.076,67.566,21.729
-0.614,-1.181,1.067,-27.100,70.740,33.630
-0.639,-1.222,1.074,-25.330,72.571,45.044
-0.640,-1.222,1.080,-26.672,72.937,55.908
-0.672,-1.243,1.089,-29.785,72.388,66.162
-0.656,-1.242,1.094,-34.668,72.021,74.585
-0.676,-1.188,1.085,-41.138,72.083,81.177
-0.704,-1.099,1.037,-47.913,73.364,88.440
-0.758,-0.981,0.980,-49.805,76.782,97.839
-0.785,-0.880,0.927,-46.326,82.520,109.741
-0.767,-0.794,0.923,-41.443,89.783,124.207
-0.750,-0.726,0.915,-34.607,96.985,140.320
-0.723,-0.698,0.897,-26.672,104.065,156.494
-0.704,-0.648,0.912,-25.024,109.924,170.349
-0.665,-0.557,0.852,-26.001,113.586,181.091
-0.787,-0.338,0.771,-25.330,117.004,191.162
-0.812,-0.242,0.683,-18.921,120.789,200.439
-0.765,-0.168,0.701,-17.395,123.291,201.660
-0.735,-0.082,0.721,-21.973,121.094,193.420
-0.684,-0.031,0.706,-29.785,114.197,180.969
-0.627,0.009,0.672,-37.903,106.384,169.617
-0.530,0.063,0.681,-42.236,102.356,163.208
-0.415,0.004,0.662,-38.025,102.844,165.466
-0.309,-0.097,0.637,-35.522,107.666,176.514
-0.364,0.133,0.582,-38.086,116.089,194.397
-0.424,0.185,0.489,-21.912,125.793,218.140
-0.379,0.128,0.454,2.075,132.812,235.352
-0.343,0.119,0.503,15.869,134.460,239.502
-0.306,0.154,0.556,22.034,127.686,238.220
-0.260,0.153,0.594,26.672,115.173,238.342
-0.172,0.077,0.594,30.212,101.746,239.014
-0.148,0.072,0.649,27.161,92.285,238.525
-0.126,0.107,0.703,22.278,84.900,239.441
-0.081,0.069,0.696,23.865,78.735,243.530
-0.090,0.085,0.653,26.367,76.294,248.413
-0.153,0.184,0.687,29.663,77.881,254.517
-0.140,0.229,0.641,35.522,79.285,261.536
-0.094,0.198,0.636,43.396,81.726,263.489
-0.079,0.174,0.697,42.603,84.351,260.437
-0.066,0.260,0.706,33.325,85.754,256.226
-0.055,0.299,0.682,28.748,89.172,254.639
-0.095,0.400,0.613,29.053,96.130,255.615
-0.183,0.494,0.618,29.907,102.661,257.324
-0.200,0.556,0.653,31.799,100.769,255.676
-0.099,0.522,0.690,31.982,89.417,244.812
0.023,0.513,0.760,26.733,73.181,222.168
0.157,0.497,0.842,21.484,55.542,191.528
0.229,0.418,0.838,26.978,40.100,158.875
0.163,0.431,0.813,28.442,32.532,132.874
0.207,0.396,0.839,22.461,33.691,123.108
0.265,0.372,0.838,16.541,39.185,124.390
0.264,0.417,0.804,9.705,45.837,128.052
0.221,0.453,0.794,4.456,49.622,130.127
0.238,0.512,0.765,0.854,47.485,125.671
0.260,0.566,0.753,-2.197,41.016,115.845
0.292,0.564,0.739,-5.493,32.288,105.530
0.343,0.553,0.747,-10.925,23.376,94.666
0.394,0.535,0.748,-18.127,15.747,82.092
0.443,0.529,0.749,-23.315,10.010,68.726
0.419,0.552,0.721,-25.635,6.226,56.702
0.422,0.546,0.715,-23.315,4.639,48.523
0.444,0.534,0.703,-19.104,4.211,44.678
0.469,0.500,0.705,-13.733,4.333,42.908
0.491,0.477,0.717,-9.644,4.089,41.931
0.481,0.472,0.729,-7.812,2.625,39.917
0.454,0.484,0.740,-8.545,0.610,37.903
0.473,0.462,0.746,-11.169,-1.343,37.109
0.499,0.451,0.751,-11.597,-2.747,35.095
0.500,0.455,0.756,-13.428,-3.906,31.250
0.494,0.457,0.760,-14.038,-5.371,26.062
0.468,0.477,0.740,-12.756,-6.653,19.897
0.467,0.477,0.748,-9.827,-7.690,13.000
0.480,0.443,0.756,-6.470,-8.484,6.592
0.492,0.405,0.776,-4.700,-9.888,-0.305
0.502,0.378,0.794,-5.554,-12.329,-6.409
0.509,0.347,0.804,-7.629,-14.709,-10.925
0.514,0.323,0.811,-9.583,-16.479,-13.489
0.517,0.297,0.817,-10.437,-17.029,-14.282
0.521,0.271,0.818,-10.681,-16.113,-13.733
0.527,0.255,0.813,-10.559,-14.526,-12.207
0.528,0.245,0.810,-9.766,-12.268,-10.315
0.525,0.235,0.810,-8.545,-10.132,-8.789
0.528,0.221,0.813,-7.080,-8.972,-8.728
0.524,0.209,0.812,-5.676,-8.850,-10.132
0.518,0.199,0.823,-4.639,-9.521,-12.146
0.523,0.186,0.831,-3.723,-10.742,-13.428
0.523,0.178,0.838,-3.662,-12.085,-13.672
0.528,0.172,0.851,-4.089,-13.123,-13.550
0.529,0.159,0.850,-4.272,-14.160,-13.367
0.523,0.149,0.851,-6.226,-14.038,-13.367
0.547,0.150,0.864,-9.949,-13.000,-12.390
0.526,0.160,0.842,-7.812,-11.414,-11.658
0.525,0.166,0.827,-7.080,-8.789,-10.986
0.517,0.164,0.829,-5.554,-6.165,-10.010
0.521,0.154,0.829,-3.601,-4.578,-9.827
0.520,0.144,0.832,-2.319,-4.456,-10.803

-0.519,-0.920,1.125,1.709,-13.611,-63.904
-0.491,-0.963,1.151,-0.244,-6.653,-55.908
-0.472,-0.985,1.175,-1.648,-2.075,-46.387
-0.496,-0.994,1.179,-1.648,0.305,-36.072
-0.500,-0.998,1.168,-2.319,1.892,-25.757
-0.512,-1.006,1.177,-1.953,3.662,-16.846
-0.533,-1.029,1.178,-2.747,5.554,-10.681
-0.535,-1.042,1.203,-3.540,7.263,-6.104
-0.520,-1.086,1.198,-4.639,8.789,-1.770
-0.575,-1.075,1.229,-7.385,10.803,2.319
-0.625,-1.065,1.236,-10.681,13.428,5.920
-0.669,-1.053,1.227,-11.658,15.991,10.864
-0.716,-1.079,1.216,-12.329,19.714,16.602
-0.715,-1.102,1.217,-13.245,23.437,21.240
-0.720,-1.136,1.215,-13.428,28.076,24.719
-0.694,-1.178,1.223,-15.076,32.532,28.137
-0.706,-1.186,1.236,-17.151,37.109,32.532
-0.716,-1.181,1.233,-19.226,40.955,39.307
-0.721,-1.150,1.208,-21.851,44.373,48.767
-0.731,-1.096,1.166,-23.865,49.133,60.303
-0.751,-1.038,1.112,-25.024,54.993,72.327
-0.775,-0.962,1.093,-23.804,61.218,84.656
-0.797,-0.877,1.075,-18.982,66.284,96.802
-0.760,-0.844,1.045,-11.963,70.496,109.619
-0.731,-0.827,1.062,-6.165,74.768,121.338
-0.731,-0.796,1.067,-4.822,77.637,129.944
-0.738,-0.752,1.049,-5.371,79.163,136.658
-0.745,-0.701,1.013,-7.507,80.322,142.822
-0.753,-0.634,0.979,-10.925,82.336,148.193
-0.752,-0.580,0.940,-13.245,85.266,152.405
-0.733,-0.551,0.922,-15.503,88.562,154.968
-0.697,-0.508,0.932,-19.592,91.248,156.494
-0.668,-0.465,0.919,-24.841,92.468,158.691
-0.670,-0.419,0.896,-28.320,94.177,163.086
-0.682,-0.391,0.861,-30.212,97.229,168.884
-0.655,-0.375,0.847,-32.166,102.173,174.622
-0.646,-0.338,0.852,-36.438,107.849,180.054
-0.615,-0.303,0.849,-41.443,113.464,186.646
-0.567,-0.268,0.837,-44.678,118.774,195.374
-0.519,-0.261,0.818,-46.509,123.962,206.848
-0.468,-0.246,0.818,-50.232,128.723,219.971
-0.429,-0.225,0.827,-53.223,131.653,234.070
-0.386,-0.224,0.797,-54.321,132.629,249.390
-0.349,-0.184,0.746,-56.885,134.033,266.296
-0.390,-0.048,0.687,-57.373,137.695,284.302
-0.448,0.056,0.629,-50.354,143.250,303.589
-0.452,0.193,0.562,-39.551,148.987,320.251
-0.445,0.317,0.539,-27.405,154.419,330.994
-0.453,0.395,0.557,-12.451,157.837,335.815
-0.431,0.440,0.538,-1.099,157.959,334.412
-0.361,0.440,0.547,6.897,155.701,327.820
-0.283,0.402,0.571,11.353,151.306,315.247
-0.165,0.325,0.563,13.062,144.592,297.485
-0.019,0.282,0.573,13.489,137.512,276.367
-0.015,0.318,0.601,14.526,130.005,257.690
-0.007,0.346,0.613,16.235,121.155,249.817
0.019,0.418,0.547,22.217,112.915,253.784
-0.036,0.490,0.500,32.227,107.666,265.076
-0.162,0.628,0.463,42.053,102.966,271.790
-0.165,0.652,0.427,49.072,96.497,268.921
-0.097,0.677,0.450,50.293,88.257,257.324
-0.051,0.594,0.480,48.889,77.820,237.061
0.072,0.594,0.552,40.955,66.101,206.177
0.209,0.592,0.594,33.691,53.223,169.434
0.292,0.542,0.622,29.602,40.161,134.277
0.258,0.549,0.622,22.583,28.259,103.760
0.231,0.560,0.637,13.000,17.639,81.360
0.261,0.550,0.627,3.235,9.338,70.313
0.274,0.536,0.623,-1.648,4.333,65.063
0.281,0.546,0.612,-2.869,2.930,62.256
0.291,0.550,0.612,-0.366,4.150,62.073
0.309,0.558,0.610,4.944,7.385,63.354
0.317,0.550,0.621,11.841,10.803,65.552
0.313,0.535,0.631,17.334,13.367,65.674
0.334,0.537,0.674,17.578,14.038,63.049
0.338,0.538,0.694,15.564,12.024,58.289
0.327,0.536,0.684,14.526,8.301,50.903
0.360,0.531,0.711,5.737,4.089,43.518
0.389,0.512,0.732,0.122,-0.671,36.072
0.418,0.500,0.740,-2.808,-5.371,27.344
0.386,0.493,0.756,-4.944,-9.827,18.433
0.404,0.477,0.765,-7.263,-13.062,12.512
0.419,0.456,0.774,-9.399,-14.404,9.460
0.426,0.438,0.778,-11.780,-13.977,7.751
0.439,0.424,0.768,-13.184,-11.902,6.592
0.454,0.410,0.766,-13.306,-8.972,5.554
0.470,0.396,0.773,-12.573,-5.981,4.517
0.486,0.380,0.778,-11.353,-4.578,3.113
0.487,0.365,0.779,-10.681,-5.188,1.221
0.486,0.366,0.793,-10.376,-7.202,-1.221
0.491,0.362,0.803,-8.789,-10.681,-3.723
0.492,0.348,0.815,-6.653,-14.099,-5.554
0.492,0.328,0.820,-5.249,-16.235,-7.080
0.491,0.305,0.818,-5.249,-16.235,-8.667
0.490,0.284,0.820,-5.737,-14.282,-10.071
0.493,0.264,0.820,-6.165,-11.353,-10.986
0.504,0.247,0.829,-5.676,-8.850,-11.597
0.522,0.233,0.836,-5.249,-7.324,-11.719
0.527,0.215,0.840,-5.493,-6.775,-11.414
0.531,0.207,0.837,-6.042,-6.470,-10.559
0.534,0.203,0.827,-6.409,-6.348,-9.827
0.536,0.194,0.821,-6.104,-5.615,-8.850
0.544,0.181,0.816,-4.272,-4.700,-8.057
0.548,0.165,0.810,-2.686,-4.150,-7.812
0.552,0.162,0.812,-2.563,-3.845,-7.996
0.559,0.163,0.826,-2.380,-4.639,-7.874
0.564,0.151,0.829,-1.282,-6.226,-7.141
0.565,0.145,0.831,-1.587,-7.812,-6.653
0.562,0.147,0.832,-3.052,-8.240,-6.287
0.552,0.145,0.825,-4.700,-7.996,-5.493
0.548,0.151,0.820,-5.981,-6.775,-4.395
0.541,0.161,0.826,-6.531,-4.822,-2.991
0.539,0.170,0.828,-6.042,-3.418,-0.977
0.538,0.179,0.830,-4.333,-2.747,1.160
0.530,0.180,0.825,-2.258,-2.441,2.686
0.519,0.178,0.824,-0.549,-2.014,3.601
0.518,0.177,0.824,0.549,-1.160,3.784
0.519,0.175,0.825,1.343,-0.366,2.991
0.518,0.169,0.827,1.587,-0.061,2.014

-0.574,-0.886,1.122,12.390,-29.114,-69.702
-0.584,-0.881,1.141,8.301,-27.039,-62.866
-0.627,-0.925,1.138,0.183,-25.696,-53.528
-0.647,-0.892,1.142,-6.409,-23.987,-45.410
-0.648,-0.894,1.130,-9.827,-20.874,-37.354
-0.660,-0.891,1.105,-8.911,-15.259,-29.785
-0.686,-0.888,1.075,-8.667,-7.507,-21.912
-0.693,-0.888,1.052,-10.132,0.854,-13.367
-0.703,-0.894,1.041,-9.644,9.949,-4.639
-0.690,-0.895,1.041,-9.155,17.151,4.578
-0.666,-0.959,1.030,-6.409,22.095,13.367
-0.628,-1.012,1.040,-5.371,24.597,19.287
-0.624,-1.045,1.042,-7.141,24.597,23.254
-0.604,-1.066,1.042,-9.216,22.095,27.161
-0.608,-1.096,0.998,-9.094,18.188,30.884
-0.631,-1.089,0.970,-11.475,14.771,35.767
-0.658,-1.061,0.926,-16.235,11.963,41.992
-0.647,-1.067,0.919,-21.240,9.888,49.194
-0.643,-1.093,0.950,-26.489,8.118,56.152
-0.679,-1.102,0.942,-30.273,5.432,61.584
-0.711,-1.102,0.987,-36.011,2.136,65.491
-0.733,-1.096,0.990,-42.419,-1.465,69.092
-0.722,-0.999,0.990,-45.898,-3.418,73.486
-0.792,-0.918,0.968,-44.189,-3.662,78.979
-0.827,-0.855,0.961,-43.274,-1.953,86.975
-0.835,-0.773,0.934,-45.532,0.854,95.764
-0.841,-0.712,0.915,-47.363,6.042,105.469
-0.856,-0.603,0.865,-49.072,14.221,115.234
-0.861,-0.443,0.755,-46.631,26.672,126.038
-0.836,-0.374,0.712,-34.180,44.006,139.832
-0.810,-0.408,0.760,-21.729,61.646,153.137
-0.772,-0.424,0.788,-18.860,72.998,161.133
-0.737,-0.414,0.802,-20.813,78.613,165.100
-0.720,-0.447,0.809,-23.865,80.383,167.236
-0.663,-0.483,0.832,-29.602,80.200,169.128
-0.657,-0.455,0.793,-43.518,77.942,173.035
-0.635,-0.344,0.720,-57.556,76.233,179.932
-0.639,-0.290,0.672,-57.800,77.820,189.392
-0.651,-0.278,0.656,-48.645,83.374,200.806
-0.616,-0.249,0.654,-50.171,92.224,216.370
-0.589,-0.132,0.639,-52.979,104.126,235.779
-0.632,0.071,0.640,-56.580,118.164,261.292
-0.566,0.089,0.692,-45.471,131.836,291.016
-0.481,0.022,0.707,-21.667,141.357,315.918
-0.443,-0.008,0.771,-6.592,147.461,334.778
-0.446,0.021,0.829,-0.488,149.719,353.210
-0.457,0.074,0.817,6.958,149.780,373.657
-0.488,0.097,0.776,23.254,151.367,396.362
-0.547,0.093,0.726,43.640,154.724,419.189
-0.586,0.152,0.701,60.181,157.898,439.148
-0.641,0.213,0.693,71.594,160.156,455.566
-0.668,0.264,0.735,87.891,159.363,467.163
-0.630,0.409,0.806,104.919,154.236,472.534
-0.623,0.370,0.850,114.319,143.921,472.290
-0.539,0.241,0.835,105.103,129.700,459.351
-0.437,0.254,0.792,77.393,116.272,428.223
-0.419,0.280,0.892,46.265,103.394,385.559
-0.337,0.329,0.963,18.311,86.426,336.853
-0.271,0.364,0.923,-1.465,65.369,286.072
-0.095,0.393,0.905,-9.949,46.448,236.328
0.057,0.396,0.898,-11.841,31.372,189.697
0.063,0.374,0.882,-8.301,20.020,150.513
0.024,0.400,0.918,-9.399,10.803,122.620
0.071,0.450,0.912,-17.578,3.479,107.483
0.115,0.437,0.875,-21.667,-1.282,100.342
0.125,0.427,0.838,-25.085,-2.380,96.069
0.127,0.427,0.830,-26.428,-0.977,91.492
0.160,0.416,0.825,-25.391,0.793,85.388
0.171,0.470,0.846,-24.048,1.892,76.965
0.169,0.510,0.875,-20.386,1.587,67.993
0.175,0.484,0.857,-15.869,-0.732,58.899
0.218,0.448,0.881,-17.578,-2.258,47.791
0.309,0.416,0.901,-22.278,-2.502,35.828
0.289,0.407,0.889,-22.034,-2.075,24.292
0.307,0.390,0.880,-26.489,-1.038,16.663
0.330,0.408,0.868,-30.518,0.183,13.123
0.346,0.410,0.847,-27.832,1.709,12.878
0.353,0.414,0.817,-21.057,3.357,14.709
0.351,0.387,0.810,-12.878,5.493,17.944
0.342,0.359,0.821,-6.653,7.080,20.081
0.330,0.361,0.826,-3.357,6.592,19.836
0.309,0.341,0.823,-2.747,5.005,17.822
0.359,0.286,0.845,-6.714,3.479,14.771
0.397,0.249,0.862,-9.399,2.075,9.521
0.420,0.219,0.888,-12.878,0.488,2.563
0.417,0.208,0.879,-15.686,-1.221,-4.944
0.402,0.212,0.884,-16.479,-2.441,-11.475
0.414,0.203,0.875,-17.151,-2.380,-14.282
0.425,0.177,0.875,-15.991,-0.854,-13.977
0.438,0.159,0.871,-14.832,0.793,-13.062
0.448,0.142,0.865,-13.367,2.258,-12.390
0.462,0.126,0.854,-12.451,3.601,-11.780
0.477,0.109,0.850,-12.024,4.456,-11.414
0.497,0.091,0.852,-12.085,4.578,-11.719
0.501,0.065,0.859,-13.184,3.113,-12.939
0.500,0.048,0.861,-15.686,0.549,-14.587
0.503,0.055,0.842,-18.066,-1.709,-16.052
0.504,0.052,0.831,-18.066,-2.930,-16.541
0.506,0.057,0.824,-16.785,-2.930,-15.930
0.518,0.057,0.827,-14.709,-2.441,-14.099
0.528,0.054,0.838,-12.634,-2.380,-11.719
0.534,0.064,0.850,-11.230,-2.869,-9.155
0.535,0.069,0.855,-9.766,-3.601,-6.714
0.531,0.059,0.857,-8.972,-4.578,-4.822
0.521,0.060,0.853,-10.010,-4.883,-3.906
0.518,0.070,0.850,-11.719,-4.517,-3.967
0.522,0.072,0.842,-11.597,-3.357,-4.883
0.528,0.081,0.841,-10.864,-1.953,-5.676
0.529,0.099,0.837,-10.010,-0.793,-6.104
0.536,0.099,0.840,-7.874,-0.183,-6.165
0.533,0.094,0.844,-5.493,-0.183,-5.981
0.536,0.089,0.846,-4.395,-0.977,-6.165
0.536,0.082,0.847,-4.089,-1.770,-6.531
0.540,0.081,0.844,-4.395,-2.258,-6.775
0.536,0.072,0.845,-5.005,-2.319,-7.141
0.534,0.074,0.848,-5.981,-2.075,-7.080
0.525,0.076,0.848,-5.615,-1.953,-6.714
0.518,0.074,0.850,-4.333,-1.770,-6.104
0.520,0.063,0.853,-2.197,-1.953,-5.615

-0.774,-0.820,1.058,0.427,-27.466,0.244
-0.772,-0.821,1.066,-0.183,-22.766,9.399
-0.784,-0.820,1.092,-4.089,-19.043,17.334
-0.803,-0.814,1.100,-9.827,-16.174,23.743
-0.823,-0.745,1.096,-15.869,-13.306,29.175
-0.854,-0.732,1.044,-21.973,-9.583,34.973
-0.889,-0.672,0.989,-23.621,-4.272,40.039
-0.906,-0.688,0.961,-20.752,2.991,45.349
-0.908,-0.718,0.969,-17.700,11.169,49.927
-0.904,-0.725,0.974,-17.761,19.043,53.467
-0.903,-0.721,0.969,-18.433,26.733,57.739
-0.907,-0.737,0.986,-18.372,34.119,63.416
-0.897,-0.745,0.998,-20.325,39.795,69.275
-0.897,-0.740,0.988,-22.339,43.945,74.890
-0.900,-0.709,0.942,-24.109,47.424,80.139
-0.898,-0.695,0.890,-24.048,52.124,85.938
-0.884,-0.701,0.870,-23.193,57.373,91.553
-0.879,-0.683,0.856,-23.804,61.829,96.191
-0.882,-0.680,0.858,-25.146,63.843,99.854
-0.888,-0.687,0.845,-25.818,63.782,102.600
-0.873,-0.640,0.852,-27.039,62.317,105.042
-0.868,-0.627,0.878,-29.480,60.608,108.704
-0.856,-0.618,0.906,-29.907,58.960,113.953
-0.836,-0.590,0.888,-30.090,57.861,119.873
-0.849,-0.548,0.855,-29.663,58.289,127.502
-0.839,-0.532,0.837,-28.015,59.631,135.315
-0.811,-0.542,0.846,-27.893,61.157,141.724
-0.800,-0.547,0.862,-31.982,62.012,145.264
-0.783,-0.535,0.863,-37.964,62.683,147.461
-0.740,-0.520,0.849,-46.692,65.247,151.001
-0.688,-0.501,0.869,-58.167,70.068,156.982
-0.660,-0.521,0.873,-68.909,76.599,165.466
-0.614,-0.457,0.882,-77.393,84.534,176.331
-0.638,-0.295,0.813,-84.717,94.360,192.749
-0.706,-0.149,0.731,-83.618,105.896,215.576
-0.653,-0.143,0.695,-72.937,118.042,240.234
-0.622,-0.127,0.639,-59.570,129.578,260.742
-0.603,-0.086,0.671,-49.316,140.869,278.381
-0.595,-0.008,0.670,-47.363,150.330,297.119
-0.613,0.126,0.652,-46.265,157.776,317.566
-0.626,0.283,0.633,-36.316,164.246,338.196
-0.561,0.371,0.595,-17.822,169.250,357.727
-0.518,0.400,0.583,5.859,173.279,373.413
-0.460,0.344,0.625,29.968,174.561,384.888
-0.437,0.234,0.639,47.058,171.875,392.395
-0.475,0.264,0.727,53.101,165.039,394.226
-0.386,0.230,0.726,58.289,154.602,396.057
-0.459,0.325,0.780,64.819,143.860,398.254
-0.482,0.295,0.764,77.087,133.362,399.963
-0.466,0.259,0.778,88.623,125.549,400.940
-0.476,0.237,0.843,89.539,120.544,399.353
-0.469,0.252,0.852,82.092,115.295,395.325
-0.473,0.396,0.775,68.420,110.107,387.085
-0.393,0.510,0.770,52.734,104.797,374.756
-0.457,0.458,0.721,29.602,98.145,356.750
-0.423,0.374,0.774,1.953,91.431,326.843
-0.278,0.336,0.820,-18.494,83.496,283.264
-0.092,0.387,0.888,-27.832,73.608,231.567
0.063,0.390,0.877,-32.715,62.073,179.871
0.152,0.359,0.815,-37.537,52.185,133.423
0.027,0.415,0.745,-38.513,46.570,97.229
0.067,0.472,0.778,-40.771,43.884,76.111
0.124,0.506,0.786,-41.199,39.734,66.711
0.170,0.506,0.765,-36.621,33.081,64.026
0.198,0.508,0.743,-30.884,24.902,63.538
0.229,0.495,0.745,-25.208,16.174,61.707
0.261,0.462,0.753,-21.362,7.141,56.702
0.269,0.453,0.767,-18.433,-0.793,48.218
0.286,0.430,0.751,-15.381,-6.348,39.429
0.309,0.395,0.754,-16.357,-8.362,32.349
0.325,0.392,0.767,-20.203,-8.362,26.428
0.331,0.408,0.782,-24.231,-7.935,22.095
0.336,0.411,0.788,-26.550,-7.935,19.775
0.346,0.409,0.798,-26.123,-8.423,18.616
0.352,0.422,0.806,-25.391,-9.644,18.433
0.350,0.424,0.818,-23.621,-11.414,19.165
0.345,0.405,0.835,-21.057,-13.367,19.531
0.355,0.382,0.833,-19.348,-15.076,18.372
0.357,0.370,0.833,-19.775,-15.869,15.442
0.352,0.366,0.844,-20.813,-15.442,11.047
0.357,0.359,0.851,-19.958,-14.832,6.165
0.363,0.355,0.855,-16.968,-14.221,1.343
0.379,0.335,0.874,-13.062,-13.428,-3.113
0.380,0.307,0.911,-10.498,-12.878,-6.531
0.382,0.286,0.926,-10.010,-13.550,-10.132
0.388,0.265,0.922,-9.949,-14.160,-13.184
0.391,0.252,0.923,-10.132,-13.733,-16.113
0.402,0.237,0.923,-9.583,-12.512,-18.555
0.418,0.214,0.916,-8.606,-10.864,-21.057
0.431,0.192,0.912,-8.423,-8.911,-23.193
0.438,0.178,0.913,-8.179,-7.202,-25.269
0.453,0.155,0.909,-7.568,-6.104,-26.733
0.475,0.132,0.908,-7.568,-5.493,-27.466
0.486,0.112,0.908,-9.033,-5.310,-27.588
0.496,0.116,0.904,-10.437,-5.493,-27.161
0.502,0.129,0.899,-10.498,-5.981,-25.452
0.500,0.122,0.893,-8.667,-6.470,-23.010
0.501,0.101,0.886,-6.165,-6.714,-20.264
0.501,0.081,0.888,-3.601,-6.836,-18.799
0.495,0.075,0.892,-1.831,-7.202,-18.311
0.494,0.058,0.906,-0.488,-7.751,-17.700
0.490,0.037,0.916,-0.854,-8.362,-17.029
0.488,0.025,0.928,-3.174,-8.972,-16.602
0.485,0.028,0.934,-6.042,-9.399,-16.113
0.473,0.041,0.923,-7.996,-9.338,-15.137
0.468,0.041,0.920,-8.972,-8.301,-13.062
0.457,0.051,0.919,-9.338,-6.714,-10.010
0.448,0.067,0.915,-8.972,-5.005,-6.836
0.440,0.074,0.911,-6.592,-2.991,-4.272
0.436,0.065,0.904,-3.723,-1.343,-2.075
0.439,0.056,0.901,-1.892,0.305,-0.732
0.443,0.064,0.905,-1.221,1.831,-0.671
0.447,0.069,0.904,-1.770,2.808,-0.488
0.448,0.077,0.895,-2.747,2.808,-0.305
0.442,0.089,0.904,-3.662,2.258,-0.488
0.438,0.097,0.910,-3.845,1.099,-0.854
0.438,0.090,0.905,-3.906,-0.671,-1.770
0.435,0.088,0.898,-5.249,-2.075,-2.441
0.433,0.091,0.893,-6.592,-2.502,-2.991

-0.592,-1.076,0.880,-35.828,-0.854,-12.268
-0.604,-1.078,0.892,-36.438,0.549,-8.179
-0.621,-1.100,0.873,-36.621,2.014,-4.272
-0.617,-1.084,0.907,-36.438,3.845,-0.916
-0.645,-1.109,0.890,-37.720,5.981,2.319
-0.675,-1.164,0.878,-35.400,9.094,4.333
-0.693,-1.222,0.858,-34.546,13.733,4.944
-0.703,-1.248,0.860,-38.879,18.311,4.578
-0.717,-1.301,0.879,-43.274,21.545,5.005
-0.725,-1.320,0.878,-46.631,22.522,6.042
-0.734,-1.358,0.876,-51.025,22.156,9.094
-0.768,-1.331,0.873,-54.810,22.095,15.015
-0.805,-1.313,0.866,-55.176,22.522,24.414
-0.821,-1.291,0.846,-54.382,23.437,36.987
-0.822,-1.264,0.860,-52.185,24.597,51.208
-0.830,-1.229,0.857,-49.927,25.696,66.467
-0.833,-1.169,0.867,-46.204,26.672,81.360
-0.856,-1.131,0.860,-42.175,28.076,96.069
-0.863,-1.064,0.870,-40.405,30.701,109.985
-0.884,-0.980,0.864,-41.443,35.461,122.437
-0.877,-0.906,0.830,-38.757,42.175,134.644
-0.847,-0.880,0.797,-34.546,51.453,147.583
-0.859,-0.801,0.753,-33.875,61.890,158.508
-0.861,-0.684,0.712,-33.569,70.923,168.335
-0.832,-0.623,0.694,-29.724,77.759,177.185
-0.774,-0.601,0.697,-25.940,80.872,183.594
-0.740,-0.611,0.720,-26.489,79.834,186.035
-0.716,-0.603,0.728,-31.006,74.829,185.547
-0.713,-0.565,0.704,-39.001,68.481,184.998
-0.716,-0.505,0.688,-46.448,62.561,187.805
-0.688,-0.483,0.675,-50.476,58.350,194.763
-0.639,-0.477,0.665,-52.246,56.335,205.017
-0.609,-0.454,0.647,-53.589,56.213,217.529
-0.654,-0.350,0.618,-56.152,57.373,231.506
-0.660,-0.189,0.562,-52.979,60.303,246.216
-0.635,-0.080,0.497,-39.307,65.491,262.146
-0.618,-0.033,0.516,-23.010,70.740,275.269
-0.550,-0.021,0.563,-10.986,71.533,283.203
-0.465,-0.007,0.636,-4.150,66.162,286.499
-0.374,0.010,0.695,-1.831,54.993,287.354
-0.315,0.007,0.720,-1.099,41.565,288.635
-0.274,0.007,0.707,-0.427,31.006,291.931
-0.282,0.056,0.723,0.427,25.757,299.683
-0.277,0.085,0.681,10.681,25.757,312.378
-0.334,0.143,0.610,29.846,30.457,328.979
-0.539,0.442,0.625,53.162,36.865,346.741
-0.610,0.599,0.627,84.595,38.818,364.685
-0.497,0.557,0.625,112.366,35.645,377.197
-0.465,0.316,0.644,122.192,31.555,376.892
-0.410,0.137,0.758,109.436,28.198,358.765
-0.404,0.083,0.917,87.708,22.644,323.975
-0.346,0.126,1.051,63.049,12.268,281.677
-0.291,0.229,1.109,43.640,-2.075,241.394
-0.274,0.264,1.073,29.419,-16.846,209.717
-0.270,0.286,1.007,14.709,-26.855,184.753
-0.314,0.317,0.994,3.357,-29.602,163.269
-0.268,0.324,1.001,-2.502,-27.405,144.775
-0.222,0.302,0.994,-6.897,-22.522,127.502
-0.148,0.279,0.982,-13.550,-15.747,111.877
-0.120,0.297,0.960,-16.663,-6.531,98.206
-0.109,0.357,0.973,-15.076,3.845,89.600
-0.090,0.333,0.961,-13.489,13.245,85.999
-0.044,0.305,1.003,-13.306,20.813,85.144
0.014,0.276,1.008,-11.597,24.841,83.069
0.090,0.243,0.999,-7.751,26.611,79.224
0.135,0.226,1.027,-3.052,27.283,74.524
0.173,0.205,1.037,3.113,26.001,69.885
0.206,0.160,1.000,7.263,22.949,66.406
0.234,0.139,0.976,5.371,20.142,63.843
0.258,0.135,0.962,-0.366,18.127,62.256
0.290,0.128,0.947,-3.967,16.235,61.035
0.308,0.101,0.922,-4.761,14.465,59.082
0.322,0.094,0.920,-3.174,13.367,56.702
0.325,0.086,0.924,0.183,12.207,54.321
0.323,0.067,0.932,4.456,9.766,51.331
0.306,0.048,0.929,5.615,6.104,47.302
0.313,0.024,0.917,1.770,1.831,41.748
0.342,0.004,0.906,-5.005,-1.892,34.119
0.359,0.000,0.923,-13.794,-5.066,25.269
0.329,-0.004,0.920,-18.555,-7.935,16.052
0.338,0.007,0.909,-21.667,-9.644,8.667
0.330,0.008,0.896,-21.362,-10.010,4.089
0.310,-0.008,0.895,-17.212,-8.911,1.770
0.306,-0.039,0.889,-12.878,-7.629,1.099
0.300,-0.075,0.895,-10.620,-6.653,0.122
0.291,-0.122,0.899,-9.216,-6.226,-1.892
0.290,-0.154,0.893,-9.583,-6.592,-5.310
0.281,-0.165,0.896,-11.963,-7.690,-9.277
0.271,-0.169,0.896,-13.611,-9.338,-13.550
0.279,-0.191,0.898,-14.160,-11.719,-17.395
0.289,-0.210,0.919,-14.587,-14.404,-21.240
0.291,-0.206,0.947,-14.893,-17.212,-24.170
0.287,-0.220,0.955,-13.245,-19.531,-25.391
0.278,-0.246,0.951,-10.803,-20.264,-24.597
0.266,-0.254,0.942,-9.277,-19.043,-22.522
0.256,-0.251,0.958,-8.545,-16.479,-19.104
0.249,-0.259,0.969,-7.141,-13.855,-15.015
0.242,-0.279,0.975,-5.310,-11.658,-10.803
0.226,-0.287,0.991,-4.211,-9.949,-7.507
0.217,-0.285,1.011,-3.906,-9.033,-4.822
0.234,-0.284,1.024,-3.723,-9.521,-2.136
0.240,-0.281,1.038,-4.883,-10.681,0.366
0.229,-0.271,1.050,-7.324,-11.780,2.258
0.229,-0.267,1.041,-9.705,-12.512,3.601
0.234,-0.267,1.026,-12.146,-11.719,4.028
0.258,-0.260,1.011,-14.099,-9.277,3.723
0.280,-0.264,1.011,-15.381,-5.920,3.479
0.275,-0.285,1.009,-16.113,-2.380,3.418
0.271,-0.304,1.004,-16.785,0.732,3.906
0.266,-0.302,0.991,-17.334,3.662,5.432
0.274,-0.289,0.999,-18.127,5.737,8.972
0.279,-0.277,1.015,-17.517,6.287,13.733
0.303,-0.275,1.024,-14.343,5.005,18.738
0.328,-0.266,1.032,-10.925,2.991,24.292
0.333,-0.255,1.027,-9.460,0.854,30.212
0.333,-0.254,1.024,-10.803,-0.793,36.438
0.322,-0.247,1.009,-13.794,-1.282,41.870
0.314,-0.227,1.008,-17.395,-0.366,46.448
0.289,-0.210,1.025,-19.714,1.465,50.293

-0.883,-0.767,0.900,-23.499,9.888,-11.597
-0.888,-0.753,0.902,-25.208,13.489,-7.141
-0.899,-0.764,0.897,-24.963,16.907,-2.625
-0.911,-0.767,0.906,-24.353,20.691,2.502
-0.914,-0.742,0.920,-23.499,24.231,8.057
-0.916,-0.756,0.931,-20.081,26.611,14.160
-0.902,-0.759,0.949,-15.503,28.320,19.348
-0.890,-0.787,0.936,-16.724,29.114,23.376
-0.919,-0.785,0.912,-18.555,31.006,26.001
-0.930,-0.784,0.890,-18.066,34.424,28.992
-0.939,-0.811,0.889,-17.578,38.086,32.471
-0.943,-0.809,0.911,-19.653,40.039,34.973
-0.947,-0.807,0.941,-19.287,40.466,36.987
-0.939,-0.829,0.930,-18.494,40.039,39.734
-0.951,-0.794,0.930,-20.569,40.833,42.603
-0.986,-0.814,0.919,-21.362,43.762,46.387
-0.959,-0.853,0.922,-20.264,48.157,49.805
-0.967,-0.883,0.910,-18.616,54.138,51.819
-0.986,-0.899,0.906,-21.301,60.242,54.504
-0.998,-0.936,0.890,-24.719,65.247,58.533
-0.985,-0.964,0.855,-28.870,69.153,62.561
-0.970,-0.949,0.827,-32.654,73.242,67.261
-0.934,-0.948,0.831,-34.546,76.355,73.975
-0.911,-0.967,0.845,-34.424,76.599,82.336
-0.881,-0.967,0.835,-34.485,74.158,90.820
-0.880,-0.964,0.832,-34.424,70.313,100.037
-0.863,-0.928,0.817,-33.325,66.833,109.680
-0.868,-0.897,0.810,-32.410,63.965,120.300
-0.869,-0.837,0.804,-29.968,62.134,131.836
-0.855,-0.781,0.799,-26.306,60.974,143.616
-0.854,-0.729,0.805,-22.949,60.120,154.663
-0.852,-0.658,0.820,-21.606,58.594,163.513
-0.852,-0.601,0.828,-20.630,56.580,170.105
-0.842,-0.551,0.835,-20.447,54.626,174.988
-0.825,-0.483,0.834,-21.423,53.650,178.345
-0.801,-0.444,0.845,-22.278,53.772,180.603
-0.798,-0.399,0.828,-23.804,54.382,183.167
-0.749,-0.356,0.812,-23.499,55.908,185.486
-0.728,-0.352,0.790,-23.743,58.960,189.514
-0.739,-0.245,0.755,-25.696,63.354,195.496
-0.775,-0.078,0.707,-27.100,68.115,203.979
-0.732,-0.058,0.678,-22.095,72.754,211.914
-0.706,-0.020,0.673,-21.240,74.890,212.219
-0.657,0.008,0.689,-26.917,73.303,206.848
-0.616,0.074,0.667,-30.273,69.702,199.402
-0.594,0.112,0.685,-33.325,65.247,194.641
-0.544,0.124,0.694,-35.645,60.242,193.726
-0.498,0.125,0.666,-36.987,56.030,195.801
-0.446,0.145,0.620,-38.696,55.054,200.562
-0.482,0.218,0.599,-41.138,56.885,208.557
-0.558,0.419,0.565,-39.612,59.814,218.201
-0.492,0.490,0.494,-28.809,63.293,228.149
-0.358,0.493,0.511,-11.536,67.383,234.741
-0.368,0.456,0.603,-2.075,68.054,236.633
-0.346,0.412,0.680,1.282,62.012,233.459
-0.235,0.404,0.668,7.141,51.270,226.440
-0.193,0.418,0.645,9.033,41.077,219.299
-0.221,0.401,0.693,6.653,32.654,214.355
-0.238,0.428,0.711,5.249,23.804,211.548
-0.204,0.401,0.707,3.113,15.015,211.426
-0.107,0.336,0.690,4.944,8.240,211.792
-0.100,0.323,0.674,14.221,5.005,211.060
-0.178,0.388,0.645,25.330,5.859,211.060
-0.205,0.411,0.687,33.936,10.559,213.867
-0.298,0.541,0.721,34.119,15.991,218.994
-0.338,0.658,0.697,35.034,18.433,224.609
-0.297,0.556,0.799,36.987,17.029,227.051
-0.272,0.382,0.933,29.602,10.925,221.741
-0.096,0.309,0.932,16.724,-0.671,206.970
0.126,0.255,0.922,8.911,-10.986,186.157
0.202,0.201,0.878,-1.343,-17.090,162.292
0.134,0.202,0.863,-16.052,-19.226,137.756
0.039,0.255,0.890,-31.433,-19.775,113.586
0.015,0.332,0.898,-39.795,-20.630,91.125
-0.004,0.349,0.872,-39.490,-21.240,72.632
-0.034,0.296,0.842,-33.813,-19.531,59.570
-0.000,0.242,0.886,-26.367,-15.747,50.415
0.037,0.207,0.908,-20.874,-11.475,44.922
0.046,0.195,0.957,-17.212,-7.812,43.640
0.078,0.178,1.006,-12.024,-5.615,46.570
0.082,0.144,1.017,-3.967,-4.578,52.612
0.053,0.103,1.040,4.395,-4.028,59.692
0.011,0.092,1.053,7.141,-3.174,67.505
-0.076,0.140,1.086,8.972,-1.587,75.806
-0.150,0.186,1.038,17.212,0.977,84.351
-0.161,0.173,1.004,26.245,5.615,92.041
-0.172,0.148,1.028,31.372,9.521,93.933
-0.143,0.104,1.082,26.794,10.132,88.257
-0.060,0.070,1.105,20.691,6.958,74.585
-0.019,0.011,1.106,12.634,2.563,55.664
0.026,-0.002,1.158,-3.052,-0.671,35.583
-0.016,-0.026,1.155,-10.498,-3.052,16.968
0.046,-0.071,1.151,-16.907,-3.296,3.967
0.063,-0.107,1.137,-28.809,-1.587,-3.540
0.012,-0.110,1.133,-40.771,2.747,-6.592
-0.022,-0.055,1.117,-46.692,7.996,-6.714
-0.003,-0.005,1.083,-43.884,13.367,-2.563
0.005,0.014,1.073,-33.875,18.799,6.592
0.011,0.008,1.099,-21.851,22.339,18.127
0.048,-0.021,1.124,-12.329,22.034,28.809
0.065,-0.054,1.128,-4.395,19.043,37.170
0.064,-0.073,1.096,1.587,14.404,42.236
0.063,-0.113,1.079,1.831,10.986,44.983
0.034,-0.156,1.047,-1.892,8.728,44.617
0.008,-0.207,1.038,-9.094,8.301,40.833
0.022,-0.233,1.020,-17.273,9.338,33.936
0.055,-0.237,1.013,-25.940,11.719,26.306
0.090,-0.233,1.028,-34.668,15.198,20.264
0.121,-0.189,1.064,-41.138,17.456,16.479
0.132,-0.126,1.078,-44.128,18.066,16.479
0.113,-0.089,1.060,-43.823,17.517,20.142
0.093,-0.077,1.049,-41.565,17.273,25.513
0.076,-0.062,1.027,-36.499,17.761,30.945
0.052,-0.056,0.964,-29.846,19.287,35.706
0.048,-0.045,0.921,-24.170,22.522,38.940
0.050,-0.102,0.858,-21.606,26.672,40.466
0.111,-0.168,0.874,-20.447,30.884,38.025
0.191,-0.178,0.874,-21.912,33.875,31.616
0.244,-0.151,0.917,-26.733,34.729,24.658

-0.904,-0.629,1.045,2.075,-24.353,-34.363
-0.927,-0.650,1.029,2.380,-17.456,-29.541
-0.944,-0.680,1.007,0.916,-9.094,-23.682
-0.984,-0.699,1.032,-1.160,-0.244,-17.883
-0.974,-0.725,1.029,-4.333,7.812,-12.390
-0.989,-0.721,1.047,-5.310,15.137,-7.568
-0.976,-0.708,1.059,-7.629,20.569,-2.014
-0.971,-0.737,1.086,-7.019,24.658,5.005
-0.973,-0.720,1.080,-9.583,27.283,11.597
-0.959,-0.692,1.051,-12.207,29.907,18.127
-0.951,-0.679,1.033,-13.611,33.752,24.170
-0.950,-0.651,1.008,-15.625,38.147,29.846
-0.942,-0.605,0.974,-17.212,43.457,35.156
-0.956,-0.563,0.967,-16.418,49.316,39.734
-0.941,-0.555,0.967,-14.832,54.565,44.495
-0.928,-0.530,0.937,-12.878,59.692,49.805
-0.903,-0.508,0.948,-11.414,64.941,55.237
-0.902,-0.484,0.947,-10.742,69.214,61.768
-0.878,-0.486,0.943,-9.644,71.899,67.810
-0.857,-0.491,0.916,-8.728,74.280,73.120
-0.843,-0.496,0.899,-10.132,76.538,77.209
-0.811,-0.498,0.856,-13.733,78.979,79.773
-0.777,-0.494,0.827,-17.517,81.909,81.055
-0.767,-0.467,0.828,-20.752,86.304,82.947
-0.749,-0.433,0.817,-22.827,89.600,86.731
-0.732,-0.334,0.801,-22.705,91.858,92.468
-0.723,-0.310,0.802,-17.883,93.018,100.586
-0.679,-0.346,0.827,-11.780,92.041,107.971
-0.651,-0.372,0.834,-9.888,88.928,112.000
-0.653,-0.337,0.807,-12.146,84.961,113.586
-0.650,-0.294,0.781,-14.221,81.482,114.929
-0.625,-0.312,0.771,-14.038,78.796,116.333
-0.595,-0.322,0.771,-14.893,76.782,116.699
-0.563,-0.294,0.779,-17.212,75.684,116.699
-0.537,-0.259,0.787,-17.822,74.646,117.737
-0.513,-0.244,0.793,-17.151,73.181,119.568
-0.478,-0.237,0.795,-15.930,70.801,121.277
-0.449,-0.230,0.778,-14.954,68.420,121.948
-0.427,-0.223,0.776,-15.015,66.284,122.131
-0.412,-0.200,0.772,-15.930,64.758,122.131
-0.393,-0.177,0.751,-15.381,63.782,122.070
-0.353,-0.178,0.739,-13.306,64.148,122.131
-0.327,-0.176,0.747,-11.414,65.125,121.887
-0.312,-0.164,0.756,-11.475,65.063,120.911
-0.296,-0.152,0.753,-10.071,63.599,120.117
-0.278,-0.145,0.738,-8.850,61.218,119.690
-0.259,-0.154,0.735,-7.629,58.472,120.239
-0.251,-0.178,0.747,-5.676,55.725,120.850
-0.249,-0.153,0.748,-3.845,52.368,122.375
-0.248,-0.118,0.737,-1.099,48.584,126.587
-0.243,-0.101,0.731,3.845,45.410,132.996
-0.233,-0.091,0.709,10.315,42.603,139.038
-0.218,-0.083,0.704,16.907,40.161,143.494
-0.190,-0.105,0.724,21.545,37.476,146.851
-0.167,-0.134,0.750,24.170,33.752,148.499
-0.147,-0.141,0.768,24.597,29.358,148.743
-0.138,-0.130,0.782,22.949,24.292,149.536
-0.152,-0.063,0.792,21.606,20.264,151.672
-0.155,-0.000,0.790,25.146,16.479,155.212
-0.132,-0.004,0.787,33.386,13.428,158.813
-0.134,-0.031,0.765,39.490,11.169,160.583
-0.138,-0.003,0.769,39.063,10.376,160.522
-0.130,0.022,0.779,36.743,10.132,158.936
-0.113,0.017,0.780,36.682,9.705,156.006
-0.096,0.011,0.786,37.720,9.460,152.527
-0.089,0.045,0.802,36.133,9.705,150.146
-0.083,0.056,0.822,35.156,9.155,149.292
-0.057,0.019,0.841,38.879,8.545,148.743
-0.038,-0.007,0.855,42.542,7.751,148.010
-0.046,-0.000,0.868,42.664,6.897,147.705
-0.055,-0.012,0.870,43.213,6.165,148.193
-0.062,-0.064,0.862,43.518,5.981,149.536
-0.068,-0.120,0.873,41.382,7.141,151.184
-0.059,-0.162,0.880,35.706,9.644,152.771
-0.064,-0.137,0.842,29.724,13.428,155.823
-0.115,-0.083,0.840,23.682,17.639,161.072
-0.134,-0.034,0.855,21.179,19.714,166.321
-0.107,-0.038,0.873,24.475,19.165,169.861
-0.061,-0.054,0.866,27.588,17.029,171.570
-0.032,-0.032,0.856,25.269,14.587,172.058
-0.044,0.057,0.883,20.569,12.085,172.424
-0.067,0.114,0.908,21.301,8.911,173.157
-0.044,0.101,0.917,31.738,4.456,172.607
0.008,0.052,0.940,39.368,-0.305,169.617
0.064,0.002,0.984,41.016,-4.517,165.039
0.094,-0.069,1.021,44.556,-8.484,158.875
0.097,-0.203,1.010,49.438,-11.841,153.259
0.130,-0.257,0.977,41.687,-12.024,151.611
0.047,-0.148,0.963,26.428,-9.033,154.968
-0.021,-0.068,1.048,23.132,-6.348,162.292
-0.014,-0.088,1.114,27.344,-8.606,170.776
-0.005,-0.089,1.103,37.903,-14.648,176.270
0.050,-0.133,1.104,47.485,-20.081,179.382
0.073,-0.224,1.057,50.720,-21.912,180.420
0.086,-0.298,1.042,50.354,-18.066,179.687
0.083,-0.218,1.007,43.823,-9.155,180.847
0.082,-0.125,1.093,37.903,0.305,186.279
0.086,-0.104,1.162,35.156,4.333,191.406
0.125,-0.101,1.133,37.292,1.343,189.209
0.156,-0.072,1.132,36.194,-4.150,178.711
0.156,-0.076,1.109,31.616,-10.498,162.415
0.154,-0.117,1.100,25.452,-16.235,142.578
0.183,-0.204,1.114,16.296,-20.264,120.605
0.236,-0.270,1.117,1.343,-21.851,97.839
0.309,-0.288,1.078,-17.822,-19.287,77.942
0.303,-0.282,0.974,-32.532,-9.521,64.270
0.267,-0.167,0.943,-40.588,6.775,58.716
0.247,-0.088,1.006,-41.260,23.315,61.035
0.240,-0.075,1.044,-35.583,32.959,67.200
0.284,-0.115,1.015,-27.466,36.438,73.486
0.334,-0.095,0.991,-19.714,37.476,77.759
0.341,-0.073,1.020,-15.808,36.621,79.712
0.345,-0.093,1.036,-13.489,32.593,78.491
0.365,-0.130,1.024,-12.329,26.917,73.425
0.385,-0.129,1.016,-15.259,21.973,65.674
0.375,-0.116,0.995,-18.799,19.165,58.044
0.370,-0.123,0.986,-22.339,18.005,52.734
0.383,-0.075,0.974,-27.100,17.883,49.805
0.365,-0.012,0.977,-30.151,17.334,49.316
