aX,aY,aZ,gX,gY,gZ
0.330,1.572,0.637,-73.547,136.169,62.256
0.292,1.601,0.590,-52.002,133.911,24.414
0.231,1.609,0.518,-28.870,130.127,-13.794
0.167,1.571,0.410,-6.775,125.427,-52.490
0.103,1.537,0.295,12.634,120.911,-90.027
0.066,1.496,0.177,27.161,115.295,-125.183
0.034,1.424,0.063,33.875,107.971,-159.058
0.003,1.376,-0.027,32.288,99.426,-193.176
-0.028,1.350,-0.080,24.963,89.722,-225.159
-0.081,1.308,-0.091,19.165,78.491,-253.357
-0.139,1.232,-0.091,19.043,65.491,-278.625
-0.207,1.169,-0.078,25.513,50.232,-301.086
-0.302,1.080,-0.109,39.307,34.180,-319.702
-0.370,0.947,-0.206,56.458,18.921,-333.862
-0.409,0.827,-0.320,68.787,5.249,-343.628
-0.400,0.700,-0.429,70.923,-8.423,-349.609
-0.370,0.574,-0.535,63.232,-25.330,-354.370
-0.367,0.488,-0.625,47.729,-46.021,-360.413
-0.380,0.428,-0.676,27.283,-70.251,-366.028
-0.391,0.395,-0.694,9.338,-97.351,-369.324
-0.425,0.350,-0.675,0.549,-125.916,-370.056
-0.451,0.270,-0.649,4.456,-154.663,-367.676
-0.460,0.153,-0.680,14.893,-182.251,-360.901
-0.468,0.000,-0.725,21.790,-207.886,-348.267
-0.453,-0.188,-0.772,23.010,-231.873,-331.665
-0.428,-0.401,-0.805,16.479,-257.080,-313.416
-0.398,-0.579,-0.842,3.601,-284.973,-296.753
-0.411,-0.730,-0.842,-15.625,-313.965,-280.579
-0.424,-0.887,-0.788,-41.931,-342.163,-264.160
-0.460,-0.982,-0.644,-74.463,-372.009,-249.390
-0.505,-1.009,-0.446,-106.995,-404.175,-237.000
-0.578,-1.051,-0.267,-131.165,-435.242,-223.999
-0.750,-1.101,-0.064,-152.222,-460.205,-207.153
-0.884,-1.128,0.246,-176.941,-479.065,-187.927
-1.091,-1.146,0.561,-199.707,-491.699,-167.053
-1.266,-1.243,0.940,-221.191,-495.178,-140.991
-1.418,-1.278,1.371,-249.878,-486.023,-107.056
-1.608,-1.161,1.802,-280.396,-458.496,-61.646
-1.827,-0.965,2.216,-303.650,-408.936,-3.662
-1.979,-0.734,2.571,-312.073,-340.210,63.965
-2.058,-0.489,2.841,-295.532,-259.155,129.944
-2.012,-0.291,3.024,-262.390,-179.077,187.012
-1.812,-0.104,3.173,-235.535,-112.915,235.107
-1.555,0.182,3.243,-222.412,-64.026,274.353
-1.298,0.500,3.332,-215.515,-25.269,307.434
-1.149,0.828,3.301,-207.275,9.460,333.191
-0.922,1.092,3.216,-183.411,45.654,345.581
-0.661,1.218,2.867,-147.339,83.069,346.436
-0.654,1.236,2.468,-132.141,122.314,336.731
-0.519,1.420,2.331,-126.282,163.940,323.059
-0.455,1.544,2.080,-127.197,194.824,314.819
-0.411,1.651,1.877,-133.728,218.628,307.922
-0.356,1.758,1.829,-135.010,239.075,298.401
-0.284,1.804,1.800,-124.878,252.136,288.635
-0.239,1.778,1.662,-103.943,255.005,275.330
-0.216,1.740,1.505,-84.412,249.268,256.042
-0.163,1.667,1.373,-74.402,236.633,230.103
-0.128,1.579,1.226,-73.547,220.459,196.594
-0.123,1.555,1.091,-76.721,207.764,157.593
-0.139,1.518,0.996,-79.468,202.759,118.591
-0.186,1.634,0.915,-79.163,205.505,80.078
-0.252,1.689,0.868,-73.425,216.003,47.607
-0.285,1.711,0.935,-58.105,230.103,25.574
-0.309,1.737,1.040,-33.936,239.990,8.972
-0.364,1.728,0.942,0.671,238.037,-6.714
-0.407,1.606,0.754,43.030,231.995,-23.804
-0.442,1.436,0.551,80.078,227.722,-44.617
-0.463,1.264,0.381,101.440,225.342,-69.580
-0.482,1.134,0.216,103.027,223.694,-96.436
-0.492,1.093,0.101,86.304,221.497,-122.559
-0.502,1.079,-0.012,63.171,218.140,-145.996
-0.525,1.063,-0.079,47.913,213.745,-164.978
-0.532,1.022,-0.087,41.687,204.590,-178.650
-0.528,0.948,-0.112,40.649,188.110,-188.477
-0.521,0.849,-0.167,43.823,167.725,-196.411
-0.502,0.722,-0.237,50.903,147.156,-202.820
-0.471,0.588,-0.303,59.021,127.502,-207.825
-0.427,0.481,-0.346,63.293,108.398,-210.754
-0.355,0.372,-0.380,63.293,88.135,-211.060
-0.246,0.219,-0.433,61.462,68.054,-209.412
-0.113,0.044,-0.485,57.373,50.659,-207.458
0.031,-0.120,-0.498,49.438,36.377,-205.627
0.174,-0.263,-0.474,36.194,21.851,-202.881
0.332,-0.411,-0.432,18.982,5.737,-198.547
0.498,-0.567,-0.395,1.892,-11.719,-193.237
0.643,-0.712,-0.320,-14.832,-30.090,-187.683
0.721,-0.809,-0.195,-32.654,-49.011,-182.800
0.729,-0.859,-0.009,-48.828,-70.068,-178.223
0.651,-0.839,0.211,-59.387,-95.093,-173.157
0.548,-0.796,0.426,-62.500,-123.352,-165.894
0.457,-0.766,0.586,-62.195,-152.100,-155.457
0.368,-0.730,0.725,-63.477,-176.514,-141.663
0.300,-0.670,0.880,-69.519,-192.871,-124.268
0.245,-0.602,1.046,-77.698,-200.012,-103.271
0.216,-0.536,1.197,-87.219,-198.059,-80.322
0.202,-0.460,1.344,-98.816,-186.584,-57.373
0.175,-0.354,1.469,-106.750,-166.870,-37.231
0.161,-0.229,1.574,-106.628,-141.418,-21.179
0.160,-0.120,1.643,-99.915,-113.403,-9.033
0.218,-0.006,1.671,-90.088,-85.205,-0.427
0.206,0.123,1.654,-80.078,-59.143,7.202
0.178,0.231,1.603,-70.862,-36.194,12.695
0.182,0.316,1.527,-59.082,-15.320,15.381
0.233,0.393,1.452,-45.166,4.089,17.029
0.287,0.440,1.400,-29.724,22.400,18.738
0.304,0.452,1.356,-13.000,37.659,20.569
0.349,0.420,1.309,1.465,49.438,21.118
0.403,0.362,1.226,11.597,58.167,20.935
0.446,0.309,1.144,18.921,64.880,19.836
0.486,0.270,1.081,24.109,69.824,17.883
0.503,0.217,1.032,28.442,71.472,15.442
0.512,0.162,0.968,30.762,69.214,13.184
0.516,0.121,0.898,30.396,64.087,11.292
0.513,0.093,0.823,27.893,57.007,9.094
0.504,0.081,0.773,23.254,49.011,7.080
0.500,0.078,0.747,16.724,41.443,5.920
0.501,0.081,0.731,10.559,33.691,4.883
0.500,0.087,0.723,6.165,26.672,4.639
0.495,0.094,0.714,3.845,21.362,4.456

-0.432,-1.334,1.529,-119.141,-244.507,37.415
-0.542,-1.273,1.791,-126.282,-235.657,63.354
-0.649,-1.183,2.045,-129.517,-220.154,91.797
-0.628,-1.043,2.308,-133.240,-197.876,123.779
-0.711,-0.899,2.606,-136.658,-171.631,157.776
-0.737,-0.664,2.807,-141.724,-144.958,189.697
-0.670,-0.427,2.921,-137.329,-113.098,216.125
-0.595,-0.210,2.941,-129.150,-74.646,239.075
-0.536,0.024,2.900,-124.878,-32.104,256.958
-0.502,0.270,2.849,-120.239,10.681,268.555
-0.424,0.514,2.795,-111.328,48.523,273.010
-0.356,0.714,2.705,-99.670,77.148,272.400
-0.349,0.860,2.536,-87.646,96.069,266.235
-0.351,1.047,2.369,-79.712,109.619,254.761
-0.324,1.220,2.227,-80.139,122.192,242.249
-0.392,1.351,2.100,-82.825,136.353,228.271
-0.396,1.469,1.993,-80.078,151.733,210.571
-0.357,1.556,1.901,-70.496,166.565,189.941
-0.424,1.588,1.702,-58.472,178.772,168.213
-0.516,1.589,1.469,-47.424,189.575,146.851
-0.521,1.606,1.366,-46.997,198.242,129.272
-0.495,1.611,1.318,-55.420,202.820,113.647
-0.483,1.631,1.272,-57.495,204.224,94.177
-0.511,1.659,1.179,-48.584,203.735,71.655
-0.558,1.690,1.060,-35.400,201.599,50.598
-0.574,1.686,0.937,-24.475,199.341,33.752
-0.568,1.687,0.843,-16.418,199.097,18.738
-0.615,1.706,0.711,-7.507,200.806,2.747
-0.591,1.692,0.631,0.549,201.111,-11.963
-0.526,1.639,0.545,2.808,196.106,-28.198
-0.512,1.583,0.422,3.967,188.293,-50.171
-0.523,1.591,0.330,8.728,181.885,-76.416
-0.548,1.566,0.214,16.663,176.270,-99.792
-0.554,1.492,0.083,25.330,170.898,-117.676
-0.529,1.427,-0.006,30.945,165.466,-131.592
-0.486,1.349,-0.078,34.363,158.508,-143.250
-0.440,1.231,-0.159,39.551,149.231,-155.334
-0.424,1.114,-0.266,44.556,138.123,-169.678
-0.411,0.995,-0.352,44.434,126.343,-185.120
-0.427,0.868,-0.480,38.940,114.075,-200.378
-0.440,0.716,-0.547,30.212,101.318,-214.600
-0.424,0.602,-0.528,16.113,86.609,-226.379
-0.423,0.515,-0.482,0.488,67.200,-235.413
-0.413,0.421,-0.437,-8.545,44.739,-241.455
-0.399,0.305,-0.404,-12.878,22.827,-244.934
-0.395,0.205,-0.355,-14.465,4.150,-246.521
-0.396,0.115,-0.304,-14.526,-11.475,-245.789
-0.390,0.006,-0.289,-14.099,-25.879,-241.638
-0.358,-0.158,-0.286,-14.709,-38.086,-235.107
-0.279,-0.322,-0.248,-18.738,-49.011,-228.271
-0.212,-0.455,-0.180,-24.109,-60.059,-222.717
-0.176,-0.574,-0.109,-25.024,-72.937,-218.262
-0.154,-0.738,-0.049,-19.409,-88.562,-213.806
-0.152,-0.954,-0.033,-10.254,-106.812,-210.022
-0.166,-1.183,-0.048,-1.099,-126.465,-207.947
-0.179,-1.403,-0.047,0.732,-147.095,-203.613
-0.178,-1.570,0.003,-10.925,-167.664,-193.542
-0.188,-1.666,0.137,-32.654,-185.547,-176.636
-0.223,-1.693,0.334,-51.941,-198.669,-155.273
-0.266,-1.707,0.530,-58.716,-207.031,-130.859
-0.309,-1.712,0.704,-55.542,-212.769,-104.675
-0.355,-1.688,0.860,-53.711,-217.346,-75.806
-0.379,-1.626,1.040,-56.396,-220.154,-44.312
-0.352,-1.521,1.253,-61.035,-220.032,-12.146
-0.297,-1.388,1.477,-65.125,-217.163,19.043
-0.226,-1.180,1.682,-69.214,-211.121,47.607
-0.165,-0.963,1.879,-73.181,-201.416,72.021
-0.113,-0.720,2.037,-74.097,-187.195,90.759
-0.098,-0.495,2.140,-70.984,-168.457,103.882
-0.092,-0.307,2.203,-64.636,-145.264,112.366
-0.111,-0.129,2.206,-56.580,-119.385,116.760
-0.135,0.055,2.204,-48.950,-92.407,118.164
-0.116,0.243,2.234,-45.715,-67.383,119.873
-0.091,0.418,2.257,-43.335,-46.692,121.460
-0.065,0.554,2.237,-33.752,-29.846,120.911
-0.036,0.620,2.139,-15.869,-15.686,117.004
-0.018,0.635,1.990,1.587,-3.540,110.107
-0.007,0.673,1.859,10.437,7.446,101.318
0.014,0.703,1.734,11.414,17.517,92.163
0.047,0.718,1.633,10.071,26.611,82.275
0.071,0.728,1.551,10.132,34.851,71.167
0.075,0.720,1.466,15.259,41.382,59.448
0.068,0.671,1.346,23.193,44.800,49.561
0.059,0.587,1.211,29.053,45.227,42.053
0.061,0.511,1.112,29.297,43.213,36.377
0.063,0.459,1.040,25.024,38.574,31.433
0.069,0.416,0.995,19.043,32.837,27.100
0.077,0.376,0.958,15.259,28.320,23.071
0.084,0.324,0.919,14.526,25.208,18.860
0.091,0.272,0.885,14.404,23.560,14.648
0.093,0.224,0.867,12.634,22.339,10.986
0.093,0.191,0.856,8.423,20.752,8.118
0.087,0.163,0.857,3.845,19.531,5.615
0.085,0.147,0.877,-0.061,18.127,3.113
0.079,0.136,0.896,-2.319,15.808,0.977
0.062,0.122,0.900,-3.113,12.634,-0.671
0.053,0.111,0.907,-4.150,9.338,-1.648
0.047,0.112,0.903,-6.348,6.653,-1.526
0.051,0.110,0.916,-8.606,6.042,-0.305
0.061,0.102,0.932,-8.972,6.714,1.099
0.069,0.089,0.933,-7.935,7.202,1.953
0.076,0.070,0.929,-7.324,7.080,2.808
0.083,0.055,0.937,-7.935,6.775,2.991
0.090,0.055,0.956,-8.911,5.859,2.441
0.097,0.057,0.963,-8.972,4.578,1.404
0.097,0.053,0.965,-8.728,2.930,0.000
0.099,0.052,0.976,-8.728,1.648,-1.465
0.096,0.050,0.978,-8.545,0.671,-2.808
0.091,0.045,0.988,-8.240,0.366,-3.662
0.084,0.047,0.997,-6.958,0.610,-3.906
0.084,0.044,0.999,-4.700,0.610,-3.235
0.090,0.030,0.994,-3.052,0.244,-1.831
0.089,0.025,0.995,-2.869,-0.244,-0.610
0.092,0.029,1.010,-3.113,-0.427,-0.244
0.094,0.032,1.020,-3.052,-0.916,-0.366
0.092,0.026,1.024,-2.686,-1.038,-0.671
0.084,0.022,1.034,-2.380,-0.732,-1.404
0.075,0.022,1.037,-2.197,-0.244,-2.563
0.066,0.021,1.030,-2.319,0.244,-3.113

-0.041,0.904,1.727,-101.685,74.219,145.142
-0.035,0.985,1.733,-93.933,86.609,136.169
-0.032,1.044,1.706,-81.909,98.022,125.610
-0.049,1.063,1.632,-67.322,108.521,114.563
-0.072,1.048,1.533,-54.504,117.432,102.966
-0.083,1.033,1.454,-47.546,124.878,91.797
-0.107,1.039,1.365,-46.509,131.104,80.994
-0.104,1.046,1.328,-47.729,135.498,70.435
-0.083,1.063,1.310,-48.462,137.451,58.777
-0.073,1.063,1.272,-46.326,137.024,45.166
-0.079,1.069,1.227,-42.175,137.146,30.029
-0.112,1.096,1.180,-38.635,138.672,14.648
-0.137,1.149,1.165,-37.292,142.151,0.732
-0.152,1.194,1.167,-35.706,146.729,-10.498
-0.168,1.208,1.134,-30.212,152.222,-21.240
-0.199,1.203,1.049,-19.592,158.020,-32.471
-0.222,1.194,0.953,-10.559,163.452,-43.579
-0.199,1.172,0.897,-10.864,166.504,-53.162
-0.178,1.133,0.838,-16.174,165.955,-63.538
-0.153,1.108,0.806,-20.691,164.124,-77.026
-0.155,1.108,0.782,-22.217,161.926,-92.712
-0.176,1.096,0.742,-17.578,159.363,-107.727
-0.205,1.070,0.674,-8.728,156.921,-119.507
-0.224,1.033,0.589,-0.549,154.663,-127.319
-0.223,0.986,0.506,4.822,152.710,-131.958
-0.224,0.927,0.410,9.644,151.123,-136.353
-0.223,0.858,0.305,16.663,149.475,-141.663
-0.221,0.767,0.181,24.658,146.851,-147.095
-0.233,0.657,0.038,29.236,141.968,-151.794
-0.234,0.536,-0.113,28.076,134.949,-155.640
-0.215,0.462,-0.188,17.212,125.183,-158.875
-0.176,0.414,-0.207,1.282,110.413,-162.781
-0.147,0.373,-0.224,-10.010,92.224,-167.786
-0.136,0.327,-0.248,-13.123,74.280,-173.645
-0.153,0.268,-0.301,-10.437,57.800,-178.955
-0.171,0.203,-0.357,-7.751,44.006,-181.946
-0.178,0.143,-0.395,-7.935,31.982,-181.213
-0.181,0.082,-0.435,-11.230,19.348,-177.246
-0.172,0.025,-0.460,-17.456,5.737,-171.692
-0.147,-0.023,-0.457,-26.306,-8.240,-165.771
-0.129,-0.070,-0.433,-34.119,-23.193,-161.072
-0.122,-0.120,-0.411,-38.330,-39.001,-158.142
-0.127,-0.169,-0.383,-38.208,-56.030,-155.640
-0.129,-0.233,-0.368,-37.354,-74.768,-152.283
-0.134,-0.335,-0.392,-36.743,-93.384,-148.071
-0.117,-0.452,-0.402,-38.147,-111.023,-143.738
-0.090,-0.552,-0.385,-42.969,-127.625,-139.099
-0.094,-0.642,-0.345,-49.133,-144.775,-133.911
-0.120,-0.722,-0.319,-54.871,-162.415,-127.075
-0.132,-0.821,-0.247,-62.073,-179.749,-117.737
-0.112,-0.910,-0.112,-70.984,-197.266,-106.445
-0.094,-0.986,0.052,-76.721,-216.675,-95.276
-0.100,-1.047,0.228,-77.759,-237.366,-84.412
-0.138,-1.109,0.401,-75.623,-258.179,-73.730
-0.195,-1.174,0.575,-72.144,-276.794,-62.805
-0.269,-1.243,0.733,-71.655,-291.199,-51.086
-0.345,-1.273,0.932,-77.454,-298.889,-38.025
-0.437,-1.244,1.180,-90.332,-299.500,-21.606
-0.523,-1.197,1.479,-105.896,-292.542,-0.732
-0.579,-1.082,1.828,-115.662,-278.198,24.048
-0.599,-0.997,2.179,-113.586,-259.888,52.002
-0.634,-0.925,2.397,-99.915,-241.882,79.834
-0.653,-0.860,2.539,-82.397,-222.595,106.384
-0.657,-0.802,2.638,-70.496,-201.233,130.798
-0.652,-0.727,2.704,-64.453,-176.208,151.611
-0.641,-0.614,2.736,-62.927,-146.912,168.457
-0.618,-0.516,2.726,-64.880,-115.723,183.655
-0.602,-0.404,2.673,-69.580,-84.656,196.777
-0.615,-0.226,2.605,-74.829,-55.786,208.496
-0.596,-0.013,2.550,-82.886,-30.457,222.595
-0.566,0.215,2.478,-91.187,-7.996,238.037
-0.515,0.444,2.411,-95.825,14.038,251.404
-0.454,0.610,2.310,-94.177,35.461,260.376
-0.410,0.700,2.157,-84.717,54.626,262.268
-0.378,0.756,1.995,-75.439,69.641,256.531
-0.377,0.838,1.859,-74.463,79.041,246.887
-0.387,0.937,1.757,-79.468,84.412,236.084
-0.400,1.104,1.696,-86.365,88.196,224.609
-0.398,1.261,1.659,-93.384,93.933,214.722
-0.368,1.399,1.658,-99.792,103.210,205.200
-0.331,1.537,1.679,-102.478,114.685,192.749
-0.308,1.646,1.631,-96.985,125.977,175.659
-0.283,1.697,1.528,-86.060,137.207,155.212
-0.312,1.707,1.377,-77.332,149.475,133.362
-0.334,1.721,1.270,-74.951,161.255,111.267
-0.278,1.735,1.226,-75.012,169.922,88.318
-0.257,1.718,1.159,-72.327,173.889,64.087
-0.267,1.670,1.044,-64.941,174.744,37.292
-0.271,1.609,0.931,-54.504,174.561,9.155
-0.291,1.528,0.819,-43.518,173.523,-17.273
-0.333,1.462,0.730,-33.142,171.265,-41.016
-0.362,1.414,0.659,-23.376,167.297,-60.120
-0.382,1.352,0.574,-12.634,161.621,-74.341
-0.389,1.291,0.500,-1.221,155.762,-85.327
-0.379,1.212,0.410,10.132,150.452,-95.337
-0.378,1.111,0.285,21.851,145.996,-106.323
-0.369,1.030,0.193,30.640,142.456,-117.798
-0.349,0.941,0.109,33.142,137.207,-127.930
-0.323,0.836,0.044,31.250,130.188,-137.085
-0.305,0.756,0.012,28.381,121.338,-146.729
-0.288,0.692,-0.006,26.611,109.863,-155.151
-0.258,0.584,-0.042,26.367,96.008,-160.889
-0.216,0.457,-0.083,27.222,82.092,-165.405
-0.166,0.342,-0.089,27.283,69.458,-170.227
-0.130,0.231,-0.091,26.306,57.434,-174.194
-0.088,0.120,-0.087,24.170,45.532,-176.636
-0.022,0.018,-0.051,21.545,34.241,-177.063
0.049,-0.090,-0.004,19.043,22.461,-174.805
0.133,-0.194,0.047,16.418,10.071,-170.837
0.226,-0.271,0.118,13.367,-2.197,-164.734
0.313,-0.344,0.213,10.498,-14.038,-156.982
0.375,-0.405,0.310,8.728,-25.757,-149.048
0.413,-0.465,0.391,9.705,-36.621,-142.456
0.430,-0.523,0.461,10.803,-45.227,-137.390
0.429,-0.571,0.533,9.766,-51.697,-133.301
0.418,-0.584,0.633,6.897,-56.091,-129.211
0.411,-0.592,0.738,2.808,-59.875,-122.986
0.405,-0.600,0.823,-0.122,-62.622,-114.807
0.394,-0.586,0.902,-2.075,-62.805,-105.286

-0.559,-1.388,1.183,-100.159,-247.375,-9.827
-0.652,-1.341,1.543,-112.061,-246.399,18.982
-0.742,-1.270,1.852,-118.958,-239.746,51.636
-0.803,-1.207,2.127,-120.483,-224.854,86.609
-0.823,-1.121,2.371,-117.615,-201.904,120.483
-0.796,-1.016,2.509,-112.183,-173.157,151.611
-0.727,-0.870,2.606,-107.239,-141.052,180.969
-0.658,-0.728,2.647,-104.614,-108.337,209.045
-0.589,-0.546,2.634,-100.952,-76.782,233.398
-0.532,-0.309,2.569,-98.083,-47.729,254.333
-0.473,-0.067,2.472,-99.121,-20.874,273.987
-0.400,0.163,2.343,-104.492,4.517,290.771
-0.326,0.355,2.202,-110.291,29.907,301.208
-0.275,0.486,2.060,-111.755,53.650,303.040
-0.273,0.548,1.879,-108.459,71.350,297.241
-0.342,0.623,1.687,-107.483,80.322,287.354
-0.399,0.764,1.589,-118.958,83.740,279.297
-0.429,0.937,1.539,-139.526,87.097,274.597
-0.448,1.102,1.529,-151.001,95.398,269.470
-0.460,1.263,1.528,-155.029,107.239,262.390
-0.454,1.361,1.499,-152.954,118.408,252.686
-0.465,1.431,1.396,-143.311,128.723,238.708
-0.507,1.493,1.332,-132.324,138.611,220.703
-0.521,1.526,1.297,-124.817,146.423,202.881
-0.536,1.573,1.273,-118.164,150.818,185.425
-0.549,1.658,1.268,-111.023,152.893,166.687
-0.546,1.731,1.237,-101.685,153.076,146.851
-0.524,1.743,1.156,-91.675,153.625,125.183
-0.528,1.716,1.045,-83.252,156.982,101.013
-0.523,1.697,1.001,-80.017,163.269,74.829
-0.526,1.710,1.001,-81.055,169.312,47.729
-0.542,1.737,1.031,-77.515,173.096,21.545
-0.567,1.772,1.047,-67.383,174.194,-2.869
-0.596,1.779,1.009,-52.429,174.194,-24.963
-0.635,1.739,0.917,-33.936,176.086,-46.143
-0.651,1.674,0.845,-18.066,180.786,-66.589
-0.679,1.593,0.702,-8.362,185.120,-86.548
-0.713,1.498,0.588,-4.089,189.331,-105.957
-0.689,1.428,0.550,-7.812,189.941,-123.718
-0.659,1.361,0.501,-18.799,185.181,-140.015
-0.644,1.301,0.440,-22.888,179.077,-158.508
-0.655,1.248,0.387,-15.015,172.729,-177.917
-0.696,1.184,0.309,-3.235,164.734,-194.702
-0.713,1.084,0.210,7.507,155.151,-207.092
-0.709,0.960,0.082,17.456,146.057,-216.980
-0.712,0.835,-0.043,26.123,139.832,-226.624
-0.717,0.717,-0.183,31.921,135.315,-234.985
-0.689,0.584,-0.289,33.936,130.432,-240.295
-0.668,0.480,-0.346,28.809,121.643,-243.469
-0.623,0.398,-0.385,15.686,107.178,-244.751
-0.570,0.338,-0.408,3.540,88.989,-245.605
-0.505,0.283,-0.415,-5.798,69.153,-246.399
-0.462,0.221,-0.432,-12.024,49.500,-247.986
-0.429,0.156,-0.434,-13.733,32.410,-250.244
-0.406,0.090,-0.421,-13.367,17.761,-251.770
-0.393,0.019,-0.414,-11.353,4.333,-251.343
-0.391,-0.081,-0.434,-7.446,-8.423,-248.047
-0.369,-0.194,-0.442,-4.272,-21.790,-241.150
-0.313,-0.293,-0.440,-4.822,-37.476,-230.774
-0.248,-0.396,-0.439,-7.935,-55.847,-218.689
-0.164,-0.518,-0.466,-9.277,-74.097,-206.787
-0.070,-0.657,-0.472,-9.766,-90.881,-196.350
0.019,-0.780,-0.414,-13.794,-108.459,-187.927
0.083,-0.878,-0.340,-20.081,-128.906,-182.434
0.127,-0.974,-0.261,-26.245,-151.489,-178.772
0.138,-1.041,-0.130,-31.189,-173.950,-175.110
0.112,-1.108,0.007,-31.372,-196.167,-170.715
0.054,-1.199,0.101,-26.062,-216.919,-165.100
-0.019,-1.293,0.192,-21.606,-234.375,-157.227
-0.047,-1.361,0.349,-23.499,-248.657,-143.921
-0.091,-1.401,0.519,-32.776,-261.230,-124.084
-0.127,-1.410,0.729,-45.471,-269.775,-99.731
-0.150,-1.369,0.955,-55.298,-273.071,-73.547
-0.182,-1.334,1.165,-59.570,-271.973,-46.753
-0.220,-1.308,1.335,-59.082,-266.907,-21.057
-0.261,-1.273,1.494,-55.542,-258.362,1.770
-0.298,-1.222,1.655,-52.002,-247.803,22.827
-0.318,-1.152,1.862,-51.208,-237.366,42.725
-0.331,-1.006,2.078,-53.711,-229.187,60.852
-0.364,-0.871,2.200,-55.115,-221.558,77.942
-0.424,-0.768,2.242,-52.734,-207.336,93.811
-0.454,-0.658,2.267,-48.279,-183.838,107.666
-0.460,-0.562,2.271,-42.419,-154.053,119.080
-0.487,-0.476,2.226,-35.950,-123.657,129.150
-0.499,-0.366,2.182,-31.433,-96.252,139.709
-0.496,-0.209,2.143,-30.212,-74.951,151.306
-0.471,-0.016,2.123,-34.302,-59.387,164.978
-0.409,0.180,2.117,-41.260,-45.837,179.199
-0.345,0.356,2.050,-45.349,-31.128,189.758
-0.293,0.495,1.982,-43.335,-12.817,193.726
-0.227,0.596,1.897,-37.842,5.554,191.101
-0.186,0.634,1.758,-30.212,21.851,182.434
-0.168,0.664,1.618,-25.208,34.424,169.006
-0.170,0.765,1.537,-27.100,43.396,154.419
-0.163,0.874,1.487,-32.776,48.950,141.907
-0.126,0.957,1.448,-37.170,53.284,131.165
-0.087,1.008,1.418,-36.255,58.655,119.629
-0.075,1.014,1.326,-26.733,63.904,105.896
-0.069,0.997,1.228,-13.123,67.566,90.515
-0.063,0.931,1.129,-2.197,68.481,77.148
-0.051,0.835,1.040,3.967,66.956,65.796
-0.048,0.761,0.967,7.324,63.171,54.871
-0.046,0.686,0.896,9.705,57.251,45.166
-0.046,0.605,0.822,11.658,51.025,36.987
-0.043,0.525,0.763,11.414,45.654,30.823
-0.035,0.454,0.721,8.728,42.236,25.452
-0.030,0.400,0.695,4.211,39.246,20.752
-0.035,0.369,0.703,-0.793,35.461,16.724
-0.039,0.354,0.727,-5.920,30.518,13.672
-0.031,0.338,0.738,-9.888,24.963,11.597
-0.020,0.317,0.761,-11.597,21.057,9.949
-0.009,0.294,0.805,-10.681,18.250,7.751
-0.006,0.270,0.823,-8.606,14.587,5.798
-0.007,0.237,0.820,-7.385,10.803,4.272
0.000,0.209,0.816,-8.118,8.362,2.991
-0.006,0.194,0.826,-10.864,7.812,1.343
-0.011,0.193,0.862,-13.489,7.629,-0.427
-0.007,0.200,0.898,-13.794,6.531,-1.404
-0.005,0.195,0.908,-12.573,3.662,-1.099

-0.205,0.542,2.007,-73.181,44.006,172.241
-0.163,0.708,2.017,-80.017,67.078,169.861
-0.118,0.859,2.037,-84.900,90.027,161.987
-0.088,0.990,2.043,-84.534,110.291,149.597
-0.071,1.089,2.004,-78.674,126.587,133.850
-0.063,1.154,1.951,-69.885,139.648,117.004
-0.063,1.200,1.878,-61.707,148.865,99.121
-0.068,1.206,1.781,-54.260,155.640,79.895
-0.086,1.178,1.665,-46.509,161.743,58.899
-0.131,1.154,1.522,-39.307,168.274,37.537
-0.187,1.129,1.380,-35.522,175.720,18.250
-0.215,1.100,1.283,-35.522,182.373,1.953
-0.253,1.090,1.189,-36.743,186.462,-11.719
-0.285,1.086,1.107,-36.377,189.148,-24.414
-0.296,1.069,1.008,-34.119,190.735,-35.522
-0.297,1.035,0.925,-31.738,191.528,-45.837
-0.308,1.033,0.863,-29.297,191.711,-56.458
-0.309,1.044,0.812,-25.757,190.063,-66.467
-0.301,1.035,0.741,-20.142,186.157,-75.012
-0.297,1.010,0.656,-10.864,182.129,-84.290
-0.290,0.986,0.553,-1.221,177.002,-94.604
-0.286,0.939,0.415,5.676,171.509,-104.492
-0.275,0.884,0.296,9.460,167.419,-114.380
-0.273,0.837,0.192,10.010,163.757,-124.634
-0.266,0.791,0.106,8.423,159.241,-133.972
-0.267,0.756,0.037,6.775,152.771,-142.395
-0.272,0.730,-0.019,5.371,144.104,-149.292
-0.260,0.691,-0.094,4.578,133.789,-154.541
-0.250,0.645,-0.170,5.005,122.986,-158.386
-0.217,0.618,-0.212,2.197,111.755,-161.255
-0.175,0.569,-0.253,-2.075,98.633,-163.940
-0.156,0.503,-0.316,-3.723,84.656,-169.250
-0.151,0.434,-0.372,-5.432,71.594,-176.025
-0.142,0.370,-0.398,-10.010,57.861,-182.678
-0.126,0.323,-0.417,-17.456,42.480,-188.232
-0.130,0.287,-0.414,-25.635,27.527,-191.589
-0.125,0.233,-0.406,-31.555,12.939,-192.993
-0.129,0.171,-0.385,-35.400,-0.671,-193.665
-0.147,0.122,-0.365,-38.391,-13.550,-192.932
-0.150,0.063,-0.312,-39.917,-27.100,-189.453
-0.139,-0.011,-0.273,-39.307,-42.725,-183.777
-0.118,-0.119,-0.278,-37.048,-59.082,-177.673
-0.089,-0.244,-0.289,-33.997,-75.012,-172.241
-0.065,-0.370,-0.295,-33.569,-89.844,-167.358
-0.042,-0.513,-0.291,-34.607,-104.431,-162.598
-0.042,-0.664,-0.287,-36.438,-119.995,-158.386
-0.059,-0.806,-0.266,-40.649,-137.329,-153.870
-0.070,-0.952,-0.204,-48.096,-156.860,-148.499
-0.104,-1.064,-0.132,-57.983,-178.650,-142.456
-0.185,-1.143,-0.032,-66.895,-200.745,-135.498
-0.267,-1.228,0.091,-74.524,-220.703,-125.854
-0.348,-1.301,0.227,-81.909,-237.427,-112.244
-0.453,-1.338,0.354,-90.088,-249.268,-94.299
-0.562,-1.364,0.504,-98.938,-255.005,-70.984
-0.626,-1.350,0.726,-107.971,-256.592,-42.664
-0.656,-1.311,0.979,-115.601,-257.507,-12.207
-0.677,-1.250,1.207,-119.995,-258.728,18.799
-0.676,-1.142,1.453,-120.422,-257.935,48.828
-0.658,-1.036,1.694,-118.835,-254.211,76.599
-0.617,-0.923,1.905,-114.990,-247.070,100.281
-0.614,-0.826,2.011,-108.337,-235.779,117.981
-0.608,-0.710,2.131,-101.440,-218.811,130.249
-0.596,-0.602,2.247,-98.938,-197.571,139.954
-0.609,-0.478,2.321,-97.412,-173.462,147.888
-0.604,-0.302,2.433,-94.482,-147.461,155.273
-0.577,-0.167,2.494,-91.858,-123.840,165.710
-0.555,-0.064,2.469,-86.670,-100.647,177.856
-0.518,-0.010,2.413,-77.393,-76.111,189.575
-0.482,0.012,2.297,-69.580,-52.856,199.402
-0.497,0.091,2.179,-67.383,-32.471,206.726
-0.505,0.335,2.204,-73.242,-16.052,214.111
-0.416,0.467,2.118,-82.336,-1.953,221.436
-0.428,0.554,2.152,-95.398,10.864,228.027
-0.298,0.712,2.153,-90.210,23.865,228.271
-0.287,0.721,2.018,-80.139,36.316,222.168
-0.303,0.745,1.887,-69.702,49.316,211.609
-0.376,0.825,1.849,-71.228,60.608,201.172
-0.417,0.981,1.878,-83.740,67.078,195.251
-0.435,1.102,1.896,-92.590,72.083,192.200
-0.455,1.211,1.872,-92.041,80.200,186.951
-0.449,1.339,1.842,-88.440,93.262,178.772
-0.399,1.412,1.767,-85.632,109.741,169.067
-0.343,1.507,1.743,-83.679,129.150,154.419
-0.297,1.503,1.698,-77.576,149.353,136.169
-0.270,1.485,1.667,-68.604,166.016,115.540
-0.268,1.512,1.632,-62.195,175.110,94.299
-0.291,1.518,1.537,-53.040,177.490,73.730
-0.317,1.497,1.419,-38.513,180.115,53.284
-0.346,1.471,1.282,-22.766,186.035,32.166
-0.429,1.427,1.057,-10.315,193.970,11.719
-0.445,1.363,0.944,-5.859,201.965,-5.798
-0.405,1.317,0.877,-8.911,204.529,-20.691
-0.388,1.248,0.748,-9.338,201.111,-35.950
-0.391,1.191,0.620,-2.563,197.327,-53.101
-0.386,1.122,0.513,10.132,194.336,-70.068
-0.396,1.014,0.371,26.733,189.270,-85.510
-0.425,0.880,0.208,42.664,182.129,-98.816
-0.444,0.758,0.046,52.734,172.852,-109.192
-0.430,0.681,-0.053,53.772,161.926,-116.333
-0.386,0.595,-0.104,48.462,148.987,-120.605
-0.319,0.487,-0.174,42.969,134.338,-124.634
-0.238,0.374,-0.201,39.734,120.483,-130.005
-0.139,0.255,-0.206,36.682,107.910,-135.803
-0.049,0.111,-0.223,33.936,95.093,-140.930
0.046,-0.020,-0.210,30.151,82.764,-144.775
0.130,-0.120,-0.142,25.513,70.496,-146.851
0.218,-0.224,-0.061,22.766,56.458,-145.691
0.317,-0.344,0.008,22.949,39.673,-141.113
0.399,-0.459,0.050,21.667,22.522,-133.911
0.443,-0.525,0.092,15.259,7.507,-124.939
0.465,-0.526,0.195,3.601,-3.845,-113.770
0.487,-0.504,0.338,-9.949,-12.085,-99.792
0.511,-0.498,0.483,-17.761,-18.616,-85.938
0.531,-0.480,0.616,-16.968,-23.987,-75.134
0.531,-0.450,0.730,-13.245,-29.541,-65.369
0.533,-0.429,0.814,-10.132,-35.278,-55.298
0.545,-0.422,0.872,-7.812,-39.978,-46.509
0.541,-0.394,0.927,-7.568,-42.542,-39.795
0.531,-0.337,0.990,-9.766,-43.274,-34.485

0.381,1.097,1.041,-67.993,60.486,17.761
0.357,1.123,0.974,-57.251,65.369,-4.700
0.313,1.155,0.896,-48.096,72.388,-25.940
0.276,1.182,0.818,-39.673,81.909,-46.021
0.225,1.169,0.736,-29.358,91.980,-65.063
0.159,1.168,0.627,-17.456,100.830,-83.191
0.074,1.178,0.497,-5.371,108.337,-99.060
0.019,1.157,0.402,5.310,112.488,-110.901
0.016,1.092,0.323,14.404,110.474,-120.544
0.022,1.014,0.240,24.231,101.501,-131.897
0.011,0.944,0.133,33.630,87.463,-146.790
-0.009,0.898,0.044,42.419,70.740,-163.574
-0.023,0.819,-0.041,51.025,53.406,-179.932
-0.066,0.711,-0.147,58.350,38.147,-195.190
-0.110,0.620,-0.254,62.500,27.710,-208.374
-0.156,0.531,-0.333,62.866,21.362,-217.529
-0.190,0.416,-0.396,57.861,15.686,-220.337
-0.177,0.286,-0.462,48.401,8.728,-218.628
-0.141,0.163,-0.497,33.813,-0.671,-214.294
-0.100,0.040,-0.516,16.418,-12.939,-209.534
-0.047,-0.094,-0.524,2.197,-28.931,-205.627
0.008,-0.226,-0.488,-7.690,-48.767,-202.759
0.020,-0.323,-0.448,-12.573,-73.914,-200.256
0.011,-0.441,-0.418,-11.597,-103.516,-194.519
0.035,-0.568,-0.382,-11.536,-135.620,-183.289
0.068,-0.684,-0.340,-17.090,-166.687,-167.664
0.080,-0.775,-0.259,-26.123,-192.200,-149.414
0.079,-0.833,-0.150,-35.522,-211.792,-130.005
0.049,-0.899,-0.010,-43.701,-227.295,-109.558
0.027,-0.964,0.154,-50.293,-242.187,-89.294
0.002,-1.000,0.345,-57.068,-258.240,-69.824
-0.049,-1.001,0.540,-65.918,-274.170,-51.331
-0.113,-1.001,0.764,-74.158,-285.767,-34.180
-0.184,-0.971,1.037,-81.238,-291.138,-17.212
-0.294,-0.941,1.285,-88.867,-290.405,0.305
-0.374,-0.925,1.596,-98.877,-282.715,20.264
-0.415,-0.828,1.975,-109.131,-269.897,41.199
-0.443,-0.717,2.324,-112.976,-255.188,61.707
-0.475,-0.642,2.557,-104.065,-236.877,81.360
-0.508,-0.605,2.707,-86.182,-211.609,98.938
-0.530,-0.571,2.782,-68.787,-180.176,115.540
-0.559,-0.539,2.764,-55.603,-144.836,132.385
-0.561,-0.511,2.701,-50.171,-108.643,152.405
-0.529,-0.401,2.625,-56.274,-73.792,176.025
-0.489,-0.231,2.556,-67.444,-41.565,202.332
-0.422,-0.035,2.481,-75.134,-11.475,227.234
-0.337,0.158,2.381,-77.148,15.869,247.253
-0.267,0.272,2.176,-73.608,39.734,261.658
-0.209,0.355,1.981,-70.068,59.814,269.043
-0.164,0.430,1.798,-72.693,73.853,270.752
-0.130,0.462,1.637,-77.637,81.726,267.578
-0.140,0.500,1.519,-82.336,85.571,259.399
-0.203,0.560,1.431,-85.876,86.182,249.817
-0.293,0.642,1.348,-88.989,84.717,243.469
-0.360,0.737,1.298,-93.628,84.290,241.394
-0.409,0.830,1.263,-99.487,87.280,242.249
-0.459,0.934,1.260,-101.196,93.506,243.164
-0.471,1.021,1.205,-99.426,100.830,243.103
-0.463,1.116,1.153,-99.731,109.436,240.356
-0.432,1.177,1.154,-101.990,119.385,233.521
-0.385,1.227,1.191,-102.051,128.296,220.764
-0.351,1.294,1.216,-97.717,133.972,202.393
-0.335,1.354,1.208,-89.966,135.071,181.030
-0.330,1.385,1.161,-79.895,135.742,158.997
-0.333,1.397,1.082,-68.665,139.343,137.024
-0.337,1.401,1.021,-61.218,145.935,116.516
-0.327,1.404,0.954,-59.937,153.931,97.412
-0.318,1.404,0.877,-61.951,162.903,78.674
-0.307,1.423,0.863,-64.880,170.532,59.692
-0.270,1.440,0.864,-69.153,173.889,40.222
-0.243,1.441,0.848,-72.266,173.767,18.799
-0.223,1.420,0.815,-70.496,172.913,-5.981
-0.216,1.379,0.774,-62.988,173.645,-33.569
-0.235,1.333,0.724,-53.650,174.500,-62.012
-0.268,1.286,0.671,-45.776,173.950,-88.257
-0.300,1.239,0.607,-38.757,172.424,-109.985
-0.338,1.189,0.544,-31.799,170.105,-126.953
-0.368,1.142,0.454,-25.024,166.687,-139.954
-0.390,1.086,0.356,-19.409,163.391,-149.780
-0.387,1.033,0.307,-17.212,159.058,-156.250
-0.363,0.979,0.274,-17.029,150.879,-161.194
-0.329,0.921,0.233,-16.846,139.282,-166.443
-0.292,0.856,0.181,-15.503,127.319,-173.889
-0.275,0.786,0.129,-11.658,116.516,-183.899
-0.256,0.730,0.101,-5.432,107.056,-195.740
-0.256,0.667,0.056,2.747,96.558,-207.275
-0.283,0.599,-0.033,11.536,84.900,-217.651
-0.308,0.524,-0.094,18.799,72.998,-225.037
-0.310,0.460,-0.135,21.301,60.120,-228.088
-0.310,0.399,-0.191,19.714,47.241,-227.600
-0.303,0.339,-0.245,16.846,36.743,-224.792
-0.271,0.284,-0.254,13.000,28.442,-220.398
-0.236,0.235,-0.237,9.460,19.470,-215.820
-0.205,0.180,-0.246,9.094,7.874,-212.158
-0.157,0.097,-0.271,11.658,-5.066,-208.984
-0.106,0.005,-0.282,14.221,-18.311,-206.787
-0.067,-0.092,-0.295,16.846,-33.325,-206.055
-0.039,-0.204,-0.340,18.677,-49.011,-205.872
-0.023,-0.339,-0.395,17.395,-63.782,-205.627
0.008,-0.473,-0.419,9.094,-77.454,-204.651
0.071,-0.612,-0.380,-6.470,-90.454,-201.660
0.140,-0.740,-0.297,-24.902,-104.980,-197.327
0.179,-0.836,-0.132,-41.565,-121.216,-191.895
0.180,-0.888,0.093,-47.729,-140.259,-184.814
0.202,-0.966,0.300,-37.781,-164.856,-174.072
0.199,-1.062,0.445,-17.700,-194.336,-158.447
0.150,-1.156,0.554,-1.038,-224.121,-139.465
0.106,-1.211,0.687,4.333,-249.878,-118.469
0.078,-1.185,0.862,-1.160,-268.188,-95.154
0.050,-1.130,1.053,-10.010,-276.550,-69.397
0.040,-1.031,1.255,-21.301,-274.658,-41.809
0.047,-0.898,1.483,-32.959,-262.268,-14.526
0.081,-0.717,1.728,-42.603,-242.371,10.803
0.125,-0.553,1.924,-45.349,-218.628,33.630
0.183,-0.375,2.071,-41.626,-192.688,51.208
0.225,-0.214,2.167,-31.616,-165.771,62.805
0.234,-0.102,2.163,-15.442,-139.648,68.604
0.248,0.009,2.117,-1.526,-115.356,70.435
0.288,0.102,2.066,5.737,-93.262,70.313

0.334,0.323,1.929,9.644,-37.537,55.298
0.333,0.387,1.881,13.184,-23.499,48.584
0.336,0.408,1.802,18.982,-11.597,43.213
0.338,0.394,1.705,24.841,-1.404,38.757
0.330,0.365,1.606,28.931,8.240,34.241
0.323,0.325,1.505,31.006,16.479,29.907
0.315,0.267,1.396,30.640,23.193,26.001
0.300,0.208,1.289,27.832,29.053,22.156
0.287,0.172,1.226,23.193,33.630,18.372
0.275,0.169,1.197,17.212,35.767,15.747
0.265,0.166,1.164,13.184,34.302,14.404
0.251,0.157,1.112,11.780,31.616,14.404
0.245,0.146,1.070,11.108,29.419,14.648
0.244,0.136,1.040,10.925,28.076,14.526
0.238,0.128,1.001,10.681,26.184,13.550
0.231,0.120,0.957,9.155,25.085,12.695
0.230,0.113,0.925,6.592,25.146,11.658
0.230,0.102,0.904,3.357,26.184,10.498
0.234,0.098,0.906,1.709,26.672,9.094
0.240,0.086,0.899,1.526,25.452,8.057
0.244,0.069,0.880,1.221,22.583,7.324
0.245,0.055,0.859,0.366,18.921,6.897
0.244,0.041,0.842,-1.465,15.686,6.531
0.237,0.031,0.843,-3.418,13.428,6.165
0.232,0.037,0.854,-4.822,10.864,5.371
0.225,0.044,0.856,-6.287,8.423,5.066
0.228,0.044,0.864,-7.202,6.592,5.127
0.233,0.049,0.878,-6.897,5.310,4.761
0.228,0.047,0.885,-6.165,3.967,3.906
0.228,0.043,0.888,-4.578,2.380,3.113
0.238,0.027,0.888,-2.380,-0.122,2.502
0.241,0.018,0.887,-2.075,-2.319,1.953
0.247,0.015,0.888,-2.747,-3.784,1.038
0.252,0.016,0.900,-4.211,-4.089,-0.061
0.255,0.017,0.915,-5.615,-3.845,-0.916
0.256,0.018,0.937,-6.104,-3.540,-2.014
0.252,0.021,0.951,-5.493,-3.662,-2.869
0.243,0.019,0.950,-4.761,-3.723,-3.479
0.241,0.017,0.955,-4.456,-3.601,-3.601
0.246,0.013,0.966,-4.700,-3.479,-3.418
0.250,0.007,0.976,-4.272,-3.906,-3.601
0.254,0.007,0.991,-1.770,-4.883,-3.967
0.255,-0.000,0.989,1.587,-6.165,-4.578
0.251,-0.015,0.984,3.967,-7.568,-5.188
0.241,-0.027,0.978,5.371,-8.362,-5.615
0.233,-0.033,0.970,5.615,-8.606,-5.798
0.226,-0.039,0.960,4.639,-7.996,-5.310
0.224,-0.037,0.959,2.686,-6.531,-4.211
0.225,-0.033,0.966,0.671,-4.517,-2.747
0.228,-0.029,0.969,-0.916,-2.625,-0.793
0.233,-0.021,0.977,-1.770,-1.404,0.977
0.240,-0.011,0.989,-1.770,-1.587,2.747
0.247,-0.006,0.990,-1.892,-2.625,3.967
0.255,-0.004,0.989,-1.831,-3.662,4.517
0.260,0.000,0.993,-1.404,-4.578,3.845
0.262,0.004,0.993,-1.221,-4.883,2.930
0.260,0.004,0.984,-1.465,-4.944,1.770
0.252,0.005,0.980,-2.319,-4.395,0.854
0.248,0.014,0.983,-3.479,-3.540,0.000
0.243,0.019,0.993,-3.845,-3.052,-0.122
0.241,0.019,1.000,-3.113,-3.601,-0.122
0.239,0.017,0.999,-2.808,-4.883,0.183
0.238,0.021,1.001,-3.174,-5.798,0.488
0.234,0.021,1.006,-3.296,-5.798,0.488
0.231,0.019,1.008,-2.808,-5.310,0.244
0.225,0.016,1.003,-2.625,-4.150,-0.122
0.221,0.012,1.004,-3.052,-2.747,-0.366
0.217,0.008,1.005,-3.540,-1.526,-0.488
0.216,0.005,1.005,-4.150,-0.671,-0.671
0.212,0.008,1.011,-4.578,-0.305,-0.671
0.211,0.012,1.024,-4.272,-0.061,-0.793
0.211,0.019,1.030,-3.235,-0.732,-0.610
0.211,0.018,1.024,-1.831,-1.465,-0.061
0.210,0.012,1.013,-0.610,-1.465,0.488
0.211,0.009,1.005,-0.793,-0.671,0.854
0.210,0.012,1.003,-1.343,0.488,1.038
0.212,0.012,1.002,-2.014,1.709,1.221
0.214,0.011,1.005,-1.770,2.136,1.099
0.209,0.013,1.002,-1.038,1.709,0.977
0.204,0.016,1.000,-0.488,0.977,0.793
0.204,0.013,0.991,-0.366,0.610,1.404
0.209,0.013,0.990,-0.854,0.366,2.319
0.216,0.017,0.989,-1.343,0.427,2.502
0.226,0.018,0.985,-1.587,0.732,2.625
0.233,0.017,0.986,-1.953,1.465,2.197
0.237,0.016,0.987,-2.075,2.075,1.526
0.236,0.016,0.990,-1.526,1.709,0.427
0.233,0.009,0.987,-1.160,0.488,-0.671
0.227,0.006,0.981,-1.648,-0.671,-1.709
0.219,0.006,0.980,-2.319,-1.160,-2.441
0.210,0.005,0.979,-2.991,-0.977,-2.930
0.203,0.006,0.977,-3.723,-0.244,-2.686
0.202,0.006,0.980,-4.272,0.793,-2.075
0.206,0.007,0.985,-5.005,1.343,-1.404
0.209,0.012,0.995,-6.042,1.892,-0.916
0.211,0.014,1.005,-5.554,1.770,-0.671
0.215,0.016,1.012,-3.540,0.610,-0.732
0.215,0.012,1.002,-1.648,-0.854,-0.549
0.213,0.005,0.995,-0.793,-1.770,-0.305
0.212,-0.001,0.993,-0.488,-1.831,-0.610
0.206,-0.008,0.987,-0.610,-1.526,-0.854
0.202,-0.011,0.983,-1.038,-0.977,-0.977
0.196,-0.014,0.984,-2.014,-0.183,-1.160
0.191,-0.012,0.990,-3.052,0.366,-0.916
0.190,-0.007,0.997,-3.784,0.916,-0.305
0.192,-0.000,1.004,-3.784,1.343,0.671
0.198,0.003,1.002,-2.991,1.526,1.953
0.203,0.004,1.000,-1.953,1.709,3.235
0.209,0.003,0.994,-1.221,1.892,4.333
0.215,-0.002,0.981,-1.099,2.075,4.944
0.226,-0.002,0.976,-1.404,2.136,4.944
0.235,-0.003,0.975,-1.892,1.648,4.456
0.236,-0.003,0.974,-2.197,0.610,3.357
0.229,-0.002,0.969,-2.197,-0.671,2.075
0.221,0.000,0.969,-2.441,-1.160,1.282
0.216,0.007,0.977,-2.991,-1.221,1.404
0.214,0.010,0.982,-3.113,-0.977,2.319
0.216,0.011,0.989,-3.052,-0.610,3.052
0.218,0.010,0.993,-2.319,-0.122,3.723

0.570,0.558,1.569,-32.959,16.785,101.196
0.562,0.647,1.570,-27.954,30.090,94.116
0.576,0.681,1.535,-26.489,45.166,82.886
0.573,0.697,1.516,-28.870,61.584,67.139
0.554,0.757,1.516,-35.461,76.660,47.424
0.546,0.820,1.522,-41.748,89.233,25.635
0.535,0.848,1.503,-43.518,99.487,3.357
0.473,0.871,1.465,-40.405,108.093,-18.921
0.402,0.918,1.405,-33.081,115.845,-40.344
0.326,0.951,1.309,-22.217,123.596,-58.838
0.245,0.970,1.188,-9.277,132.202,-73.730
0.182,0.959,1.038,5.127,141.785,-86.365
0.141,0.928,0.849,19.653,151.184,-98.328
0.144,0.894,0.661,28.381,158.997,-110.291
0.155,0.850,0.486,30.701,163.452,-123.413
0.144,0.808,0.309,26.733,162.720,-138.611
0.095,0.797,0.130,18.005,158.936,-155.029
0.035,0.781,-0.010,7.874,153.076,-171.082
-0.010,0.721,-0.101,0.305,143.494,-186.035
-0.061,0.640,-0.166,-6.165,127.686,-199.829
-0.134,0.569,-0.248,-10.376,106.018,-212.402
-0.223,0.498,-0.343,-11.475,82.642,-221.924
-0.306,0.409,-0.407,-12.268,60.608,-226.318
-0.363,0.313,-0.447,-15.503,39.978,-225.952
-0.384,0.211,-0.459,-19.775,19.470,-221.985
-0.404,0.123,-0.470,-25.269,-1.099,-215.210
-0.415,0.037,-0.503,-31.494,-21.240,-207.092
-0.421,-0.061,-0.525,-39.307,-39.917,-197.754
-0.394,-0.191,-0.538,-50.659,-57.251,-186.768
-0.343,-0.335,-0.510,-65.308,-73.486,-176.453
-0.293,-0.460,-0.418,-78.674,-91.858,-167.725
-0.262,-0.578,-0.303,-85.632,-115.173,-159.790
-0.214,-0.759,-0.206,-84.290,-144.653,-151.367
-0.179,-0.972,-0.158,-79.041,-178.284,-142.273
-0.173,-1.169,-0.103,-76.904,-211.792,-132.446
-0.205,-1.350,-0.049,-83.191,-241.028,-119.629
-0.254,-1.521,0.121,-100.159,-264.465,-100.830
-0.298,-1.571,0.385,-123.047,-283.752,-78.186
-0.336,-1.575,0.683,-139.404,-298.096,-51.331
-0.384,-1.519,0.955,-143.982,-303.711,-21.362
-0.444,-1.497,1.158,-139.404,-299.377,11.414
-0.496,-1.455,1.379,-134.705,-287.415,47.241
-0.502,-1.405,1.641,-135.071,-273.682,85.022
-0.463,-1.335,1.907,-136.780,-261.963,120.117
-0.404,-1.239,2.143,-136.353,-250.000,149.231
-0.363,-1.089,2.327,-132.690,-233.276,170.532
-0.336,-0.912,2.476,-125.244,-210.693,184.509
-0.338,-0.746,2.554,-117.065,-183.960,193.726
-0.344,-0.567,2.621,-112.122,-156.250,200.684
-0.349,-0.347,2.686,-111.511,-129.089,207.703
-0.318,-0.152,2.666,-110.718,-102.051,216.980
-0.417,0.025,2.594,-107.422,-74.036,228.271
-0.406,0.223,2.484,-100.220,-46.021,235.657
-0.356,0.380,2.344,-89.905,-18.433,240.479
-0.282,0.532,2.213,-83.069,6.653,242.249
-0.197,0.713,2.155,-80.017,28.442,240.723
-0.122,0.862,2.078,-78.735,45.166,235.718
-0.129,0.969,1.947,-75.012,58.716,226.074
-0.094,0.997,1.850,-68.848,72.876,211.609
-0.024,1.013,1.792,-65.552,85.144,194.214
-0.013,1.026,1.729,-67.139,93.079,175.659
-0.043,1.055,1.660,-69.275,98.511,155.701
-0.057,1.067,1.617,-67.200,104.309,136.292
-0.060,1.047,1.548,-63.416,111.206,119.141
-0.069,1.022,1.492,-60.486,119.629,103.210
-0.068,0.995,1.448,-56.274,129.639,87.341
-0.086,0.975,1.408,-49.255,139.160,72.571
-0.108,0.964,1.380,-40.161,146.729,58.838
-0.126,0.954,1.334,-28.931,152.100,46.753
-0.152,0.950,1.269,-16.357,157.104,36.621
-0.174,0.939,1.178,-3.906,162.598,28.259
-0.185,0.900,1.053,7.263,168.701,21.118
-0.190,0.868,0.961,13.855,175.171,13.550
-0.175,0.859,0.905,12.024,178.223,4.883
-0.157,0.842,0.836,5.249,177.673,-4.822
-0.128,0.834,0.785,-0.854,175.720,-16.357
-0.112,0.854,0.754,-5.249,173.218,-29.907
-0.095,0.886,0.729,-9.277,170.471,-42.603
-0.077,0.891,0.675,-10.437,168.823,-53.955
-0.056,0.870,0.623,-7.263,169.250,-65.063
-0.042,0.840,0.575,-0.610,171.143,-77.087
-0.040,0.789,0.505,8.789,171.997,-88.745
-0.044,0.730,0.409,17.700,170.410,-100.403
-0.050,0.662,0.306,22.278,166.443,-111.023
-0.069,0.604,0.220,21.851,160.156,-119.934
-0.067,0.540,0.157,17.334,150.940,-126.343
-0.048,0.471,0.128,11.292,138.367,-130.920
-0.040,0.425,0.116,6.653,123.352,-134.644
-0.021,0.366,0.103,7.019,107.422,-137.146
-0.004,0.293,0.073,11.230,91.492,-137.939
0.016,0.216,0.024,15.869,77.026,-137.756
0.047,0.138,-0.039,17.334,65.369,-136.658
0.083,0.068,-0.083,13.367,56.824,-134.766
0.133,0.022,-0.079,5.310,49.927,-132.446
0.182,-0.002,-0.033,-3.723,42.603,-129.456
0.247,-0.032,0.020,-10.071,33.508,-126.038
0.305,-0.085,0.047,-11.841,22.461,-122.375
0.385,-0.143,0.086,-11.108,10.620,-119.202
0.450,-0.183,0.153,-10.254,-2.563,-115.662
0.521,-0.236,0.221,-8.789,-17.822,-111.267
0.587,-0.308,0.268,-5.310,-34.790,-106.995
0.637,-0.368,0.320,-2.319,-50.476,-103.516
0.657,-0.401,0.386,-3.418,-63.599,-100.037
0.669,-0.425,0.463,-6.531,-73.547,-96.802
0.662,-0.463,0.533,-8.911,-79.773,-94.116
0.656,-0.487,0.606,-10.681,-83.374,-91.797
0.646,-0.492,0.696,-13.123,-84.412,-88.684
0.634,-0.502,0.778,-15.076,-84.106,-83.923
0.633,-0.514,0.850,-16.602,-82.825,-77.942
0.616,-0.510,0.920,-16.663,-80.994,-71.106
0.591,-0.489,0.997,-16.113,-78.064,-62.805
0.563,-0.453,1.077,-13.428,-75.012,-53.162
0.536,-0.425,1.139,-8.118,-72.449,-42.786
0.525,-0.415,1.169,-1.160,-70.496,-32.898
0.517,-0.413,1.179,4.944,-68.054,-24.109
0.503,-0.409,1.179,9.338,-63.660,-17.090
0.486,-0.396,1.173,11.780,-57.556,-11.841
0.471,-0.370,1.162,12.634,-50.110,-7.263
0.461,-0.341,1.148,9.888,-41.992,-2.380

-0.422,-1.298,1.070,-85.632,-213.928,42.664
-0.441,-1.298,1.244,-93.079,-207.214,67.566
-0.438,-1.263,1.417,-96.680,-199.890,92.834
-0.448,-1.221,1.505,-96.985,-191.833,117.798
-0.461,-1.185,1.550,-96.680,-180.054,142.151
-0.453,-1.108,1.598,-98.511,-164.490,164.368
-0.457,-1.009,1.632,-103.149,-147.827,184.204
-0.464,-0.875,1.657,-111.450,-131.104,201.416
-0.486,-0.680,1.713,-120.789,-114.075,216.431
-0.508,-0.465,1.755,-128.113,-98.328,230.774
-0.500,-0.241,1.781,-134.399,-83.130,244.507
-0.481,-0.011,1.807,-141.724,-66.833,256.592
-0.441,0.207,1.892,-147.339,-48.645,265.442
-0.380,0.426,1.924,-149.780,-31.555,269.531
-0.299,0.656,1.932,-147.705,-14.282,267.944
-0.275,0.746,1.970,-143.982,4.578,263.916
-0.249,0.838,1.990,-141.602,24.231,253.540
-0.229,0.933,1.964,-136.353,42.358,236.084
-0.210,1.005,1.902,-130.188,58.777,215.759
-0.191,1.044,1.893,-128.296,75.684,196.838
-0.181,1.083,1.916,-129.822,91.248,179.871
-0.182,1.119,1.937,-126.953,103.943,164.001
-0.199,1.120,1.930,-114.990,114.014,148.987
-0.237,1.088,1.881,-96.802,122.192,135.132
-0.274,1.052,1.812,-80.078,129.028,122.742
-0.302,1.015,1.732,-67.505,136.719,111.755
-0.321,0.985,1.643,-56.885,145.569,100.708
-0.323,0.949,1.556,-48.523,154.175,88.867
-0.316,0.907,1.476,-43.213,162.048,75.012
-0.318,0.880,1.402,-41.077,168.518,58.533
-0.328,0.880,1.337,-40.955,174.133,40.833
-0.350,0.894,1.285,-40.955,179.260,24.048
-0.357,0.903,1.231,-40.588,183.960,8.789
-0.359,0.906,1.157,-39.368,188.599,-3.906
-0.366,0.908,1.082,-36.560,193.665,-14.709
-0.372,0.914,1.017,-33.203,198.608,-24.048
-0.352,0.922,0.947,-29.846,202.026,-31.799
-0.327,0.920,0.868,-26.001,204.407,-38.940
-0.293,0.937,0.810,-22.278,206.360,-45.959
-0.244,0.959,0.769,-18.677,206.055,-53.101
-0.193,0.945,0.706,-14.404,203.430,-60.913
-0.155,0.904,0.641,-9.338,199.097,-71.045
-0.135,0.865,0.577,-3.296,194.214,-84.045
-0.131,0.829,0.508,2.502,188.354,-98.389
-0.144,0.789,0.437,6.165,182.007,-111.877
-0.153,0.751,0.376,5.249,175.842,-123.291
-0.155,0.723,0.334,2.136,169.800,-132.141
-0.155,0.687,0.299,0.061,164.185,-139.587
-0.149,0.639,0.250,1.404,158.569,-145.935
-0.154,0.592,0.187,4.333,152.649,-151.550
-0.153,0.554,0.143,6.042,145.691,-155.273
-0.141,0.509,0.084,5.066,136.536,-156.860
-0.127,0.450,0.019,1.038,126.160,-157.104
-0.101,0.402,-0.018,-3.418,115.479,-158.020
-0.070,0.358,-0.042,-7.568,103.821,-159.668
-0.046,0.310,-0.058,-10.986,91.187,-162.415
-0.027,0.281,-0.065,-11.292,77.576,-166.199
-0.007,0.255,-0.074,-9.949,63.477,-169.434
-0.004,0.213,-0.115,-8.545,49.133,-171.509
-0.002,0.171,-0.150,-7.568,36.316,-172.485
0.002,0.134,-0.166,-8.972,24.231,-172.424
0.007,0.103,-0.182,-12.512,12.085,-170.715
0.015,0.070,-0.203,-17.151,0.244,-167.542
0.024,0.014,-0.217,-21.729,-10.742,-164.246
0.049,-0.057,-0.205,-28.320,-21.912,-161.255
0.087,-0.134,-0.193,-35.156,-33.936,-159.851
0.088,-0.218,-0.185,-39.856,-46.387,-160.217
0.080,-0.308,-0.152,-43.762,-59.631,-161.072
0.079,-0.405,-0.103,-45.959,-74.951,-161.377
0.065,-0.487,-0.050,-46.631,-92.651,-160.645
0.017,-0.545,0.018,-44.617,-112.061,-157.227
-0.018,-0.634,0.079,-38.330,-132.812,-150.452
-0.013,-0.748,0.116,-28.870,-154.419,-140.930
-0.006,-0.863,0.141,-21.240,-175.049,-129.456
-0.002,-0.985,0.178,-18.005,-193.481,-115.906
0.018,-1.096,0.258,-19.592,-209.595,-101.196
0.041,-1.182,0.376,-22.278,-223.816,-87.158
0.039,-1.261,0.507,-22.827,-237.183,-74.280
0.021,-1.331,0.637,-22.156,-249.451,-62.744
0.011,-1.405,0.756,-20.203,-259.949,-53.772
-0.014,-1.477,0.849,-18.066,-267.639,-47.302
-0.072,-1.515,0.959,-17.395,-271.667,-42.480
-0.140,-1.548,1.071,-19.714,-271.912,-36.072
-0.197,-1.546,1.226,-25.513,-269.592,-25.574
-0.277,-1.498,1.366,-33.936,-265.259,-9.583
-0.352,-1.444,1.528,-43.945,-257.996,13.306
-0.368,-1.370,1.699,-52.429,-246.765,42.542
-0.356,-1.268,1.840,-55.908,-232.422,72.815
-0.337,-1.140,1.941,-55.298,-213.928,101.440
-0.329,-1.003,1.993,-51.819,-190.918,126.709
-0.308,-0.850,2.035,-47.791,-165.405,148.804
-0.259,-0.723,2.062,-46.448,-141.174,167.786
-0.210,-0.630,2.046,-47.119,-119.690,181.824
-0.177,-0.522,2.029,-49.988,-100.891,189.026
-0.160,-0.394,2.010,-56.702,-85.632,190.247
-0.161,-0.275,1.966,-63.843,-72.388,187.805
-0.167,-0.198,1.895,-68.604,-57.617,183.594
-0.192,-0.100,1.769,-71.045,-40.344,178.162
-0.231,0.064,1.748,-72.937,-20.630,173.340
-0.231,0.159,1.767,-76.233,-3.296,174.438
-0.198,0.297,1.865,-81.360,8.789,179.199
-0.178,0.472,1.911,-83.557,14.160,183.594
-0.154,0.607,1.886,-76.843,16.541,186.035
-0.126,0.660,1.812,-61.157,22.339,184.387
-0.099,0.663,1.697,-44.373,33.264,176.270
-0.077,0.668,1.603,-32.959,47.241,161.499
-0.059,0.694,1.535,-29.907,60.425,141.846
-0.070,0.728,1.464,-32.593,70.740,120.667
-0.089,0.761,1.416,-35.889,79.651,100.159
-0.096,0.778,1.370,-35.156,87.769,81.299
-0.113,0.776,1.301,-29.175,94.543,64.636
-0.143,0.754,1.197,-18.677,100.037,50.232
-0.175,0.718,1.076,-8.606,104.248,39.185
-0.186,0.666,0.983,-1.648,106.506,31.738
-0.183,0.605,0.907,2.502,105.469,26.428
-0.172,0.544,0.844,5.676,101.624,21.606
-0.152,0.489,0.787,9.460,95.398,15.930
-0.133,0.427,0.727,13.489,88.013,9.705
-0.111,0.367,0.680,16.418,80.200,3.540

0.119,0.586,2.018,-80.017,34.119,98.755
0.115,0.713,2.066,-83.740,59.692,90.637
0.132,0.834,2.101,-85.693,84.106,79.651
0.163,0.924,2.111,-85.449,105.957,65.552
0.176,0.981,2.068,-81.482,125.305,47.119
0.168,0.996,1.991,-72.510,143.372,24.658
0.142,0.986,1.889,-59.875,159.790,0.610
0.093,0.986,1.763,-47.791,173.340,-21.851
0.041,0.977,1.605,-36.316,184.204,-41.138
0.009,0.931,1.424,-26.489,193.542,-55.969
-0.007,0.873,1.235,-20.508,201.843,-68.359
-0.022,0.830,1.051,-16.663,209.717,-80.017
-0.043,0.820,0.909,-14.343,215.637,-91.003
-0.056,0.806,0.766,-11.169,218.384,-100.830
-0.072,0.741,0.572,-6.165,217.224,-110.168
-0.080,0.662,0.399,-2.686,212.769,-120.056
-0.088,0.620,0.272,-2.930,203.979,-131.348
-0.116,0.576,0.170,-4.578,190.430,-143.250
-0.151,0.521,0.070,-2.197,173.645,-156.433
-0.222,0.483,-0.031,5.188,156.494,-169.434
-0.287,0.418,-0.139,13.916,140.686,-179.749
-0.333,0.350,-0.245,19.775,126.892,-184.814
-0.365,0.284,-0.355,21.240,114.685,-184.998
-0.372,0.225,-0.442,18.188,103.516,-181.580
-0.347,0.185,-0.510,11.292,91.919,-176.025
-0.319,0.155,-0.558,1.831,78.613,-169.800
-0.285,0.118,-0.601,-7.568,62.683,-164.551
-0.252,0.090,-0.614,-17.639,44.617,-160.706
-0.198,0.073,-0.585,-27.588,24.414,-158.997
-0.158,0.044,-0.565,-36.255,2.197,-159.485
-0.138,0.009,-0.563,-42.053,-19.470,-162.964
-0.131,-0.024,-0.558,-47.302,-39.246,-168.091
-0.132,-0.061,-0.547,-54.932,-57.312,-172.668
-0.135,-0.097,-0.505,-65.674,-73.975,-175.598
-0.144,-0.116,-0.419,-75.439,-89.966,-177.002
-0.145,-0.162,-0.320,-79.285,-107.483,-176.208
-0.135,-0.243,-0.246,-79.285,-127.319,-172.791
-0.104,-0.337,-0.173,-77.454,-147.888,-167.969
-0.064,-0.478,-0.082,-75.623,-168.335,-162.109
-0.005,-0.636,0.016,-77.209,-188.721,-155.762
0.049,-0.778,0.149,-85.022,-207.153,-150.391
0.075,-0.909,0.353,-94.849,-221.558,-146.179
0.047,-1.019,0.566,-97.595,-234.314,-142.822
0.002,-1.158,0.764,-93.506,-246.948,-138.123
-0.067,-1.302,0.937,-88.501,-258.972,-131.226
-0.173,-1.450,1.081,-85.266,-269.714,-121.643
-0.283,-1.559,1.284,-88.440,-276.611,-108.521
-0.365,-1.642,1.533,-97.290,-279.785,-90.698
-0.460,-1.669,1.775,-105.957,-279.602,-68.420
-0.557,-1.686,1.995,-112.549,-273.315,-40.344
-0.631,-1.669,2.191,-116.760,-258.606,-7.751
-0.707,-1.631,2.352,-115.112,-233.948,27.405
-0.758,-1.593,2.435,-105.957,-202.148,63.843
-0.771,-1.535,2.459,-95.276,-168.091,99.182
-0.753,-1.473,2.429,-88.501,-137.024,132.446
-0.729,-1.361,2.360,-87.830,-110.718,162.964
-0.719,-1.172,2.287,-95.032,-87.402,191.284
-0.709,-0.953,2.224,-104.675,-65.308,218.018
-0.701,-0.712,2.161,-112.671,-44.556,242.737
-0.683,-0.486,2.056,-117.798,-25.879,264.709
-0.660,-0.262,1.942,-119.324,-8.423,283.142
-0.649,-0.009,1.870,-119.141,7.935,297.424
-0.612,0.236,1.813,-118.896,21.790,308.472
-0.539,0.427,1.782,-118.042,31.433,316.101
-0.474,0.670,1.721,-119.873,38.513,317.993
-0.400,0.851,1.700,-123.352,48.035,314.148
-0.298,0.943,1.712,-125.549,61.584,305.603
-0.225,1.051,1.745,-126.160,75.378,289.795
-0.221,1.142,1.692,-123.474,86.243,268.127
-0.247,1.229,1.618,-119.629,96.558,244.934
-0.262,1.324,1.581,-120.544,109.558,224.121
-0.259,1.421,1.587,-124.451,124.146,205.811
-0.252,1.512,1.601,-123.291,138.916,188.477
-0.239,1.581,1.590,-112.000,151.672,170.593
-0.212,1.580,1.533,-94.360,160.767,152.161
-0.198,1.544,1.437,-78.003,166.443,131.653
-0.194,1.515,1.349,-66.711,171.143,108.398
-0.193,1.475,1.266,-59.143,176.270,83.008
-0.200,1.442,1.192,-54.321,181.641,56.091
-0.218,1.426,1.135,-52.795,185.547,28.687
-0.246,1.397,1.059,-50.598,188.416,2.258
-0.274,1.355,0.961,-45.959,191.589,-22.766
-0.302,1.344,0.887,-41.504,195.068,-46.936
-0.328,1.343,0.811,-36.865,197.449,-68.542
-0.354,1.339,0.720,-28.809,198.914,-86.914
-0.389,1.342,0.620,-16.479,199.585,-103.271
-0.419,1.324,0.517,-1.648,198.730,-117.249
-0.440,1.238,0.383,13.855,195.007,-129.700
-0.460,1.128,0.220,27.161,188.965,-142.883
-0.482,1.000,0.077,35.522,181.274,-157.104
-0.491,0.885,-0.019,35.645,170.715,-171.021
-0.497,0.783,-0.078,30.945,156.677,-184.326
-0.504,0.681,-0.124,27.161,139.709,-196.716
-0.525,0.587,-0.172,27.344,122.375,-207.642
-0.544,0.476,-0.250,30.212,106.567,-215.332
-0.562,0.352,-0.351,31.311,93.079,-219.177
-0.551,0.226,-0.406,27.222,82.825,-218.872
-0.531,0.104,-0.442,20.386,73.303,-215.210
-0.483,-0.030,-0.458,14.282,62.317,-208.862
-0.419,-0.156,-0.451,9.949,47.607,-200.989
-0.346,-0.277,-0.428,6.470,29.297,-191.956
-0.259,-0.393,-0.405,3.906,7.812,-182.251
-0.149,-0.523,-0.381,3.723,-14.221,-172.119
-0.033,-0.682,-0.363,6.348,-36.316,-162.598
0.071,-0.852,-0.336,10.925,-57.983,-155.762
0.147,-1.017,-0.331,15.808,-80.078,-152.405
0.201,-1.146,-0.311,16.296,-102.295,-149.963
0.212,-1.198,-0.265,6.287,-124.084,-144.897
0.183,-1.202,-0.164,-13.855,-143.677,-134.705
0.166,-1.143,0.028,-37.476,-159.790,-119.690
0.169,-1.043,0.281,-55.115,-173.828,-101.074
0.211,-0.952,0.534,-62.683,-187.622,-81.238
0.317,-0.854,0.824,-63.721,-200.867,-60.608
0.422,-0.755,1.101,-60.791,-212.341,-39.673
0.531,-0.674,1.374,-52.368,-219.849,-20.142
0.585,-0.608,1.569,-39.429,-222.168,-5.005
0.602,-0.536,1.713,-25.208,-216.919,4.272
0.604,-0.483,1.839,-12.939,-204.163,7.568
0.562,-0.410,1.945,-2.686,-186.279,3.601
