aX,aY,aZ,gX,gY,gZ
-0.196,0.324,2.208,-40.771,-29.663,105.103
-0.158,0.379,2.356,-36.499,-25.452,110.413
-0.133,0.380,2.452,-29.297,-20.752,115.601
-0.177,0.386,2.499,-19.592,-15.747,116.089
-0.269,0.383,2.477,-11.047,-9.338,111.633
-0.362,0.417,2.433,-6.470,-0.427,103.210
-0.435,0.481,2.371,-4.395,12.756,93.384
-0.478,0.531,2.286,-2.625,29.480,84.473
-0.478,0.541,2.150,-1.465,48.828,77.148
-0.437,0.565,2.026,-4.395,70.435,71.350
-0.395,0.644,1.940,-9.277,91.736,65.247
-0.337,0.727,1.869,-10.498,109.558,59.082
-0.272,0.832,1.786,-8.423,120.850,53.650
-0.215,0.904,1.687,-5.127,125.549,49.255
-0.173,0.971,1.584,0.854,125.061,43.945
-0.144,0.985,1.470,10.132,120.728,36.011
-0.130,0.944,1.314,19.531,115.234,25.391
-0.121,0.917,1.136,22.461,110.901,13.000
-0.117,0.947,0.977,19.836,110.413,-0.183
-0.108,1.017,0.841,17.151,115.234,-11.230
-0.101,1.093,0.725,16.724,123.169,-19.348
-0.078,1.134,0.605,18.005,130.005,-24.719
-0.025,1.150,0.492,19.470,133.667,-29.053
0.038,1.123,0.370,20.020,134.277,-34.119
0.101,1.092,0.281,20.142,131.104,-41.565
0.153,1.077,0.209,18.799,124.329,-50.781
0.161,1.074,0.148,17.761,115.417,-59.204
0.148,1.043,0.094,19.409,104.248,-66.223
0.149,0.975,0.025,22.156,91.858,-71.655
0.163,0.888,-0.057,24.292,80.444,-75.867
0.170,0.783,-0.144,24.292,69.946,-79.712
0.167,0.670,-0.248,22.278,62.073,-83.801
0.152,0.606,-0.335,16.724,56.396,-89.050
0.127,0.582,-0.375,8.606,51.941,-94.116
0.086,0.535,-0.386,3.845,46.143,-98.511
0.048,0.464,-0.368,3.357,37.231,-102.905
0.040,0.334,-0.361,3.845,23.621,-108.154
0.037,0.197,-0.350,3.357,7.996,-113.953
-0.020,0.013,-0.359,-0.916,-5.920,-119.751
-0.085,-0.134,-0.366,-9.766,-15.503,-124.939
-0.151,-0.214,-0.305,-20.447,-19.287,-128.235
-0.220,-0.242,-0.167,-29.968,-19.531,-126.831
-0.255,-0.261,0.022,-35.828,-21.790,-119.263
-0.263,-0.334,0.216,-36.011,-28.687,-106.079
-0.260,-0.474,0.352,-30.640,-41.077,-92.468
-0.253,-0.650,0.385,-24.475,-55.786,-81.970
-0.263,-0.810,0.415,-22.522,-67.078,-75.439
-0.303,-0.870,0.453,-27.039,-72.266,-71.106
-0.329,-0.843,0.554,-33.813,-71.777,-65.796
-0.350,-0.828,0.722,-37.292,-67.749,-56.702
-0.349,-0.782,0.916,-37.048,-66.040,-44.739
-0.322,-0.788,0.991,-35.828,-68.542,-30.945
-0.257,-0.781,1.045,-35.461,-72.021,-16.785
-0.229,-0.755,1.140,-35.034,-73.730,-5.493
-0.210,-0.732,1.187,-34.668,-74.463,2.563
-0.192,-0.698,1.248,-33.813,-75.073,8.179
-0.214,-0.650,1.250,-31.738,-75.562,11.597
-0.191,-0.625,1.260,-29.053,-74.219,14.954
-0.164,-0.572,1.303,-27.466,-70.984,19.165
-0.120,-0.516,1.383,-26.794,-68.970,24.353
-0.038,-0.498,1.468,-24.597,-68.237,30.090
-0.010,-0.497,1.487,-22.095,-67.200,36.011
-0.007,-0.456,1.496,-18.250,-63.660,39.673
-0.002,-0.484,1.472,-13.428,-58.838,42.114
-0.020,-0.552,1.410,-9.949,-54.077,42.603
-0.034,-0.580,1.353,-9.827,-49.438,39.978
-0.015,-0.561,1.433,-11.475,-44.189,36.011
-0.006,-0.592,1.540,-13.000,-44.617,35.034
0.000,-0.552,1.577,-14.038,-50.354,37.659
-0.005,-0.425,1.617,-15.076,-54.565,44.495
-0.001,-0.361,1.687,-13.733,-53.711,58.228
0.018,-0.323,1.715,-9.094,-49.683,73.425
0.028,-0.294,1.693,-3.418,-43.274,85.510
0.035,-0.306,1.656,0.977,-35.156,93.323
0.050,-0.290,1.650,0.854,-27.222,95.825
0.076,-0.208,1.702,-5.859,-20.935,94.482
0.087,-0.097,1.782,-14.221,-16.479,91.492
0.094,0.018,1.865,-18.494,-13.184,87.463
0.077,0.138,1.876,-17.395,-10.254,83.496
0.062,0.194,1.869,-14.038,-5.554,81.482
0.047,0.245,1.795,-10.071,1.831,79.956
0.046,0.270,1.753,-6.531,12.512,78.491
0.057,0.298,1.724,-4.578,23.560,77.515
0.073,0.332,1.698,-3.540,33.142,76.172
0.082,0.366,1.658,-2.747,40.527,74.646
0.108,0.390,1.623,-2.319,45.532,72.510
0.128,0.405,1.592,-1.465,48.462,69.397
0.136,0.413,1.551,-0.305,49.316,64.148
0.130,0.416,1.493,1.221,49.377,56.824
0.117,0.417,1.437,2.747,49.927,48.828
0.092,0.423,1.366,3.845,50.964,40.405
0.073,0.413,1.317,4.150,53.040,33.020
0.060,0.413,1.263,3.174,55.725,26.978
0.041,0.449,1.230,2.625,58.716,21.667
0.033,0.498,1.226,3.235,61.340,18.250
0.029,0.542,1.228,5.554,61.523,16.541
0.029,0.556,1.209,9.155,59.509,15.808
0.041,0.547,1.176,12.268,56.274,14.343
0.048,0.553,1.147,14.526,52.795,11.047
0.044,0.547,1.105,16.418,51.086,6.348
0.044,0.536,1.031,16.907,51.575,0.977
0.053,0.538,0.968,15.564,55.420,-4.150

0.066,0.540,0.936,13.489,61.890,-9.399
0.078,0.524,0.916,13.062,67.871,-15.198
0.086,0.535,0.893,12.207,71.594,-20.630
0.094,0.552,0.865,10.620,73.059,-24.902
0.100,0.544,0.840,11.902,71.838,-27.954
0.098,0.526,0.811,14.282,68.542,-30.518
0.088,0.515,0.779,16.663,63.416,-33.264
0.079,0.499,0.733,18.066,57.129,-35.095
0.085,0.448,0.678,18.433,51.941,-35.767
0.088,0.405,0.624,17.700,48.950,-36.865
0.087,0.369,0.569,15.930,47.668,-39.124
0.097,0.351,0.520,12.207,48.645,-41.687
0.114,0.358,0.497,7.629,49.805,-44.189
0.123,0.377,0.497,4.333,50.537,-46.997
0.124,0.383,0.501,3.479,49.011,-49.316
0.131,0.371,0.490,4.456,45.410,-50.781
0.136,0.343,0.466,5.676,40.039,-52.429
-0.280,0.250,2.110,-12.329,-23.621,111.633
-0.289,0.347,2.101,-11.169,-13.855,110.413
-0.285,0.457,2.098,-8.606,-1.465,109.192
-0.267,0.505,2.100,-4.517,12.085,108.093
-0.249,0.628,2.040,0.427,23.987,105.347
-0.229,0.605,1.968,4.700,35.095,102.783
-0.177,0.604,1.942,8.484,47.119,97.900
-0.148,0.618,1.883,11.108,55.298,87.891
-0.151,0.666,1.752,14.221,61.096,76.233
-0.149,0.654,1.654,15.137,68.054,65.186
-0.153,0.675,1.575,13.733,75.134,54.871
-0.156,0.685,1.521,13.000,81.604,45.288
-0.147,0.674,1.435,14.038,86.304,37.537
-0.148,0.704,1.350,16.418,89.417,30.273
-0.157,0.705,1.264,19.409,90.881,24.536
-0.134,0.675,1.179,20.508,91.125,20.386
-0.097,0.668,1.098,18.738,90.942,16.174
-0.077,0.664,1.033,16.785,90.881,11.169
-0.065,0.663,0.988,17.578,90.698,4.456
-0.053,0.674,0.900,19.043,88.562,-2.319
-0.038,0.670,0.830,18.494,86.487,-7.080
-0.022,0.618,0.759,16.846,85.999,-10.925
0.011,0.638,0.713,14.343,86.365,-15.259
0.033,0.676,0.670,10.864,86.853,-19.104
0.065,0.686,0.640,8.728,86.121,-21.912
0.114,0.648,0.612,7.446,83.130,-24.658
0.139,0.627,0.585,5.859,79.224,-28.992
0.147,0.632,0.551,3.723,74.097,-35.034
0.161,0.637,0.515,1.526,69.153,-41.382
0.179,0.615,0.485,0.366,64.941,-47.546
0.190,0.595,0.460,0.061,60.669,-54.016
0.190,0.560,0.431,0.000,56.213,-60.547
0.197,0.510,0.398,-0.183,52.124,-66.833
0.197,0.454,0.377,-1.099,48.279,-72.449
0.185,0.403,0.336,-2.930,44.189,-77.698
0.178,0.379,0.306,-5.127,41.443,-82.031
0.179,0.335,0.282,-7.751,38.330,-85.205
0.181,0.314,0.269,-10.315,34.241,-87.769
0.168,0.280,0.265,-12.390,28.809,-89.294
0.156,0.235,0.270,-13.306,22.583,-90.149
0.140,0.184,0.260,-13.916,15.625,-91.125
0.105,0.134,0.242,-14.282,8.911,-92.163
0.075,0.083,0.219,-15.808,3.235,-92.896
0.051,0.042,0.219,-18.127,-0.122,-93.018
0.025,0.013,0.233,-20.813,-2.808,-92.468
-0.002,-0.009,0.237,-22.888,-5.920,-91.064
-0.024,-0.044,0.243,-23.621,-9.277,-89.111
-0.036,-0.097,0.223,-24.475,-12.939,-86.365
-0.017,-0.146,0.219,-25.452,-16.785,-83.923
0.003,-0.215,0.216,-26.550,-20.203,-81.299
0.027,-0.267,0.219,-28.442,-23.315,-78.552
0.051,-0.314,0.240,-30.884,-26.611,-75.928
0.060,-0.353,0.265,-33.081,-30.334,-73.059
0.035,-0.359,0.298,-34.729,-35.461,-70.618
0.016,-0.359,0.349,-35.217,-42.969,-67.444
0.010,-0.377,0.428,-34.668,-51.819,-62.805
-0.003,-0.406,0.496,-33.569,-61.951,-57.129
-0.013,-0.440,0.543,-30.884,-71.777,-51.331
-0.028,-0.493,0.596,-27.344,-78.796,-46.265
-0.041,-0.515,0.641,-25.024,-82.214,-41.809
-0.047,-0.550,0.683,-23.499,-83.679,-37.292
-0.048,-0.594,0.730,-21.851,-84.045,-32.654
-0.047,-0.612,0.790,-21.667,-84.961,-28.625
-0.038,-0.637,0.862,-20.752,-86.975,-24.475
-0.050,-0.680,0.946,-18.738,-90.088,-20.203
-0.087,-0.705,1.005,-17.395,-93.994,-16.724
-0.115,-0.702,1.073,-16.663,-97.473,-13.062
-0.153,-0.707,1.163,-15.198,-99.670,-7.385
-0.197,-0.730,1.251,-11.353,-100.769,-1.343
-0.235,-0.777,1.306,-5.371,-101.379,5.371
-0.268,-0.846,1.335,-0.488,-100.891,12.390
-0.307,-0.899,1.326,-0.366,-98.633,19.714
-0.339,-0.855,1.428,-5.127,-93.811,27.527
-0.369,-0.795,1.538,-10.498,-88.806,37.598
-0.381,-0.730,1.627,-12.024,-85.510,50.232
-0.357,-0.686,1.678,-11.047,-82.520,63.843
-0.333,-0.672,1.706,-10.254,-78.491,76.660
-0.321,-0.637,1.711,-10.620,-72.266,86.914
-0.311,-0.576,1.727,-11.902,-63.660,93.628
-0.295,-0.523,1.764,-13.428,-54.016,97.900
-0.281,-0.447,1.799,-16.174,-45.105,101.013
-0.267,-0.334,1.833,-19.775,-37.415,104.309
-0.252,-0.229,1.850,-22.095,-30.518,108.154
-0.237,-0.144,1.853,-22.583,-23.865,112.305
-0.218,-0.075,1.849,-22.827,-16.968,115.234
-0.199,-0.025,1.834,-23.499,-10.071,116.333
-0.188,0.058,1.813,-24.353,-2.747,115.234
-0.180,0.180,1.828,-25.513,4.944,113.342
-0.156,0.279,1.842,-25.208,12.207,112.732
-0.125,0.345,1.851,-22.644,17.517,112.305
-0.102,0.407,1.858,-18.555,21.912,110.413
-0.088,0.459,1.831,-14.404,25.208,106.262
-0.074,0.495,1.761,-11.108,28.137,100.769
-0.066,0.530,1.679,-9.094,33.386,93.933
-0.064,0.598,1.654,-8.057,41.016,86.548
-0.053,0.637,1.649,-6.409,47.852,80.139
-0.038,0.653,1.618,-4.272,52.856,74.951
-0.016,0.661,1.554,-1.709,56.458,69.580
0.012,0.641,1.479,0.427,60.181,63.721
0.039,0.649,1.431,1.221,63.721,56.702
0.062,0.633,1.368,0.854,65.552,49.377
0.064,0.623,1.312,1.465,65.430,40.833
0.046,0.627,1.276,2.808,64.514,31.738
0.037,0.615,1.231,3.174,63.049,23.560

0.012,0.633,1.200,2.747,62.012,15.686
-0.014,0.637,1.151,2.869,62.622,9.399
-0.026,0.635,1.111,2.747,64.392,4.456
-0.032,0.634,1.081,2.197,66.101,0.305
-0.033,0.631,1.051,2.441,67.078,-3.601
-0.038,0.622,1.009,2.625,67.261,-7.324
-0.047,0.621,0.973,1.709,67.688,-11.536
-0.045,0.627,0.950,0.610,68.359,-15.991
-0.022,0.633,0.931,0.305,69.092,-20.447
-0.006,0.622,0.893,0.610,69.763,-24.597
0.013,0.606,0.842,0.793,70.740,-28.992
0.034,0.613,0.784,0.183,71.960,-33.752
0.050,0.626,0.761,-1.038,72.632,-38.208
0.070,0.607,0.752,-0.916,71.960,-41.809
0.086,0.595,0.726,0.061,69.580,-45.044
-0.231,0.608,2.071,-13.733,19.897,110.474
-0.226,0.703,2.098,-10.010,27.222,108.887
-0.226,0.761,2.073,-2.502,34.485,106.628
-0.221,0.813,1.995,4.883,42.786,103.271
-0.206,0.831,1.896,10.986,53.406,98.694
-0.182,0.838,1.801,14.954,65.796,92.041
-0.146,0.863,1.738,15.991,77.454,82.947
-0.101,0.901,1.676,15.198,87.280,72.266
-0.048,0.926,1.607,15.503,95.032,61.218
-0.000,0.917,1.533,17.212,100.647,49.744
0.032,0.901,1.458,18.799,104.492,37.781
0.056,0.883,1.370,20.264,106.812,25.940
0.080,0.867,1.279,20.630,107.300,15.076
0.093,0.867,1.188,19.897,107.178,5.310
0.106,0.849,1.098,19.653,106.506,-2.319
0.124,0.818,1.021,18.860,105.164,-8.911
0.135,0.786,0.962,16.785,103.394,-15.503
0.132,0.754,0.904,13.733,101.318,-22.461
0.125,0.739,0.840,11.719,97.290,-30.151
0.116,0.716,0.772,10.742,93.384,-37.476
0.104,0.679,0.707,9.033,90.271,-43.335
0.109,0.630,0.673,5.676,87.891,-48.645
0.112,0.628,0.620,2.930,84.900,-54.382
0.108,0.626,0.557,1.221,81.787,-59.631
0.112,0.586,0.496,-0.366,78.308,-63.965
0.118,0.553,0.451,-2.380,75.134,-68.420
0.117,0.547,0.413,-4.639,71.716,-72.510
0.115,0.532,0.375,-6.165,68.176,-74.890
0.119,0.496,0.348,-6.470,63.660,-75.684
0.118,0.448,0.314,-5.920,57.739,-76.965
0.113,0.381,0.262,-5.981,49.988,-79.651
0.106,0.334,0.215,-7.263,42.358,-83.313
0.096,0.311,0.182,-9.949,35.339,-87.097
0.080,0.261,0.161,-11.902,28.931,-90.454
0.061,0.234,0.127,-13.550,23.315,-93.018
0.054,0.219,0.107,-16.174,18.799,-93.567
0.058,0.190,0.103,-17.822,14.282,-93.079
0.061,0.138,0.114,-18.066,9.705,-92.712
0.054,0.093,0.123,-17.883,4.456,-93.079
0.035,0.074,0.137,-18.677,-1.282,-94.177
0.022,0.042,0.156,-19.043,-6.836,-95.032
0.009,-0.018,0.172,-18.250,-12.268,-95.154
-0.009,-0.071,0.193,-17.212,-17.578,-95.642
-0.033,-0.123,0.213,-17.151,-22.644,-95.581
-0.047,-0.166,0.229,-17.700,-26.733,-94.604
-0.068,-0.204,0.232,-18.982,-29.175,-91.919
-0.074,-0.235,0.280,-19.958,-30.090,-87.769
-0.050,-0.298,0.322,-19.165,-31.616,-81.970
-0.029,-0.380,0.349,-17.456,-35.095,-74.890
-0.023,-0.441,0.384,-17.822,-39.734,-68.237
-0.016,-0.472,0.406,-20.264,-44.861,-61.768
-0.011,-0.482,0.455,-23.437,-49.866,-55.481
-0.020,-0.476,0.483,-27.100,-54.626,-48.645
-0.005,-0.454,0.544,-28.931,-58.350,-42.053
0.026,-0.464,0.614,-28.198,-61.890,-35.583
0.058,-0.500,0.668,-26.672,-66.101,-29.846
0.078,-0.508,0.734,-25.635,-70.435,-26.245
0.082,-0.513,0.810,-25.879,-75.256,-23.376
0.075,-0.517,0.864,-25.452,-79.895,-20.996
0.037,-0.513,0.902,-24.109,-83.923,-19.531
-0.007,-0.514,0.933,-22.949,-86.243,-17.578
-0.042,-0.517,0.960,-21.484,-85.999,-14.587
-0.051,-0.544,1.004,-19.409,-83.679,-9.949
-0.056,-0.580,1.063,-17.944,-81.665,-5.005
-0.074,-0.599,1.110,-17.517,-80.872,-0.183
-0.094,-0.583,1.151,-17.395,-80.933,4.944
-0.116,-0.570,1.225,-16.357,-80.872,10.803
-0.143,-0.552,1.289,-15.259,-81.543,17.517
-0.151,-0.548,1.330,-12.878,-82.458,24.353
-0.156,-0.577,1.361,-9.216,-81.360,30.396
-0.166,-0.559,1.394,-8.057,-78.247,35.461
-0.168,-0.580,1.409,-8.301,-74.829,42.175
-0.164,-0.576,1.437,-8.728,-70.496,49.011
-0.182,-0.521,1.473,-10.254,-65.918,55.969
-0.193,-0.456,1.525,-11.719,-61.462,63.965
-0.187,-0.391,1.577,-11.841,-57.251,72.754
-0.180,-0.331,1.620,-10.925,-53.406,81.543
-0.158,-0.298,1.647,-9.460,-50.110,88.745
-0.134,-0.271,1.664,-8.301,-45.715,93.750
-0.119,-0.235,1.674,-7.446,-40.161,96.436
-0.110,-0.193,1.670,-6.653,-33.447,97.778
-0.100,-0.129,1.666,-6.714,-25.635,98.694
-0.080,-0.047,1.672,-6.836,-17.944,99.915
-0.052,-0.023,1.739,-5.432,-11.353,101.807
-0.029,0.033,1.725,-3.235,-7.446,102.478
-0.007,0.097,1.693,-1.648,-4.944,102.600
0.014,0.134,1.677,-1.221,-1.465,103.088
0.024,0.150,1.675,-1.465,2.869,102.722
0.032,0.209,1.727,-2.136,7.141,100.464
0.036,0.286,1.772,-2.930,10.254,97.778
0.037,0.378,1.814,-2.258,12.085,95.764
0.032,0.434,1.848,-0.183,13.550,93.323
0.024,0.480,1.866,2.747,15.381,90.027
0.004,0.532,1.843,5.188,18.921,86.304
-0.028,0.559,1.813,6.897,24.475,82.031
-0.052,0.562,1.787,7.446,32.349,77.026
-0.070,0.571,1.754,6.042,41.565,70.801
-0.103,0.599,1.698,3.357,51.270,64.209
-0.135,0.653,1.646,0.977,62.317,57.556
-0.143,0.697,1.606,-0.183,73.364,52.124
-0.133,0.713,1.566,0.732,82.764,47.791
-0.108,0.706,1.507,3.479,89.966,43.457
-0.080,0.687,1.430,7.385,94.849,38.757
-0.038,0.662,1.356,9.888,97.290,33.813
0.010,0.616,1.273,9.583,97.351,27.527
0.055,0.604,1.179,7.751,96.069,18.860

0.086,0.622,1.106,5.493,94.360,8.911
0.111,0.601,1.027,4.822,93.140,-0.854
0.154,0.590,0.988,4.211,91.431,-9.888
0.187,0.560,0.943,1.343,88.135,-18.860
0.202,0.559,0.863,-1.526,83.557,-28.625
0.209,0.549,0.799,-2.991,80.383,-37.170
0.211,0.524,0.771,-3.662,78.491,-44.067
0.218,0.519,0.748,-4.150,76.782,-49.866
0.215,0.536,0.715,-4.517,73.364,-54.260
0.202,0.535,0.672,-4.211,68.237,-56.702
0.198,0.490,0.623,-3.174,63.171,-57.861
0.197,0.454,0.567,-3.113,58.716,-59.509
0.189,0.414,0.509,-4.822,54.871,-61.768
-0.155,0.483,1.864,-2.808,26.306,107.483
-0.156,0.509,1.806,-0.916,37.964,100.525
-0.164,0.529,1.734,0.854,49.133,92.224
-0.174,0.563,1.671,1.892,58.777,83.862
-0.186,0.599,1.615,2.380,65.857,76.660
-0.195,0.643,1.558,2.380,70.557,70.862
-0.184,0.698,1.513,2.441,73.792,66.589
-0.155,0.727,1.475,3.479,76.233,63.232
-0.120,0.719,1.422,6.592,78.125,59.570
-0.086,0.707,1.356,9.583,80.627,55.115
-0.049,0.711,1.279,9.644,83.557,49.988
-0.014,0.734,1.224,7.446,87.708,44.861
0.032,0.752,1.185,4.333,92.407,39.673
0.093,0.771,1.166,1.648,96.313,33.997
0.141,0.769,1.134,0.793,98.877,26.672
0.173,0.762,1.062,1.221,99.609,17.883
0.201,0.768,0.996,1.282,99.854,8.423
0.243,0.751,0.951,0.549,99.731,-1.038
0.276,0.721,0.939,-0.244,98.389,-11.108
0.279,0.704,0.887,-0.061,93.750,-23.315
0.278,0.688,0.828,0.427,88.013,-34.790
0.268,0.642,0.780,-0.793,82.886,-44.067
0.258,0.623,0.757,-2.136,78.857,-52.856
0.245,0.630,0.721,-1.953,74.707,-60.852
0.219,0.606,0.680,-1.770,70.313,-65.735
0.199,0.586,0.641,-2.319,66.040,-68.848
0.191,0.582,0.611,-2.625,62.073,-71.045
0.189,0.563,0.582,-1.770,58.167,-72.021
0.196,0.531,0.544,-0.366,53.833,-72.510
0.201,0.491,0.502,0.610,49.194,-73.608
0.204,0.450,0.455,0.122,44.189,-75.623
0.200,0.416,0.409,-1.221,40.039,-77.942
0.180,0.389,0.356,-2.625,37.109,-80.566
0.169,0.360,0.322,-4.639,34.363,-82.886
0.148,0.319,0.291,-7.263,32.166,-84.290
0.125,0.301,0.270,-9.460,29.724,-85.510
0.107,0.286,0.248,-11.353,27.039,-86.426
0.090,0.266,0.243,-11.902,23.926,-86.975
0.075,0.238,0.249,-10.376,20.203,-87.708
0.054,0.219,0.251,-7.202,15.137,-88.623
0.040,0.195,0.247,-3.296,9.827,-88.806
0.038,0.155,0.243,0.122,5.249,-87.708
0.039,0.103,0.227,1.343,0.916,-86.121
0.039,0.052,0.201,0.671,-2.197,-84.717
0.036,0.027,0.181,-0.977,-4.211,-84.229
0.027,0.007,0.175,-2.563,-6.104,-84.412
0.023,-0.016,0.213,-3.723,-8.789,-84.473
0.028,-0.055,0.249,-4.395,-13.367,-84.351
0.029,-0.105,0.273,-3.784,-20.203,-84.839
0.020,-0.152,0.303,-2.869,-28.442,-85.388
0.020,-0.212,0.327,-4.150,-37.292,-85.083
0.020,-0.281,0.343,-7.874,-46.326,-84.229
0.009,-0.344,0.357,-13.062,-53.589,-83.313
-0.005,-0.363,0.373,-19.592,-58.105,-81.909
-0.026,-0.349,0.403,-26.428,-58.899,-78.369
-0.038,-0.352,0.449,-31.311,-58.105,-72.021
-0.029,-0.374,0.532,-33.569,-56.885,-63.782
-0.029,-0.402,0.607,-35.095,-58.228,-55.481
-0.039,-0.418,0.647,-35.767,-60.913,-48.096
-0.038,-0.402,0.699,-35.461,-63.110,-42.053
-0.022,-0.422,0.753,-33.264,-65.430,-36.194
-0.004,-0.503,0.787,-29.480,-69.214,-31.494
0.010,-0.578,0.800,-26.001,-74.036,-29.602
-0.001,-0.626,0.801,-25.940,-78.674,-30.334
-0.029,-0.653,0.816,-29.541,-81.299,-31.616
-0.060,-0.638,0.857,-35.217,-82.275,-31.311
-0.079,-0.586,0.950,-40.527,-81.421,-27.466
-0.096,-0.527,1.085,-42.908,-80.811,-18.982
-0.105,-0.494,1.227,-39.612,-82.214,-7.324
-0.101,-0.471,1.318,-31.738,-86.060,5.493
-0.061,-0.525,1.344,-21.545,-89.844,18.311
-0.014,-0.549,1.397,-11.292,-91.980,26.794
-0.010,-0.596,1.400,-5.798,-92.590,31.677
-0.006,-0.601,1.398,-3.601,-91.064,34.424
0.005,-0.614,1.422,-2.258,-87.280,35.889
0.001,-0.616,1.455,-2.625,-82.153,37.354
-0.016,-0.579,1.493,-3.601,-77.026,39.490
-0.022,-0.535,1.545,-4.517,-72.144,43.457
-0.028,-0.494,1.602,-5.005,-68.237,49.805
-0.027,-0.459,1.634,-5.249,-64.819,58.044
-0.031,-0.437,1.632,-4.211,-62.073,65.979
-0.024,-0.469,1.729,-2.747,-57.922,72.266
-0.037,-0.416,1.723,-1.282,-53.650,75.806
-0.064,-0.376,1.686,0.305,-49.011,79.346
-0.083,-0.369,1.617,2.441,-42.358,84.290
-0.095,-0.391,1.584,3.418,-33.508,88.928
-0.103,-0.371,1.586,0.610,-25.269,92.163
-0.104,-0.319,1.609,-6.104,-19.104,95.398
-0.097,-0.243,1.623,-13.000,-14.587,99.182
-0.089,-0.186,1.635,-16.541,-10.620,102.417
-0.106,-0.083,1.650,-17.883,-6.836,104.187
-0.128,0.009,1.664,-18.433,-2.991,106.934
-0.133,0.105,1.701,-18.127,0.549,110.779
-0.125,0.199,1.746,-17.944,3.174,114.319
-0.117,0.282,1.779,-16.541,4.822,116.577
-0.103,0.373,1.802,-14.221,6.714,117.249
-0.086,0.462,1.827,-11.047,9.399,116.577
-0.073,0.555,1.833,-7.446,13.123,114.685
-0.069,0.622,1.827,-2.747,17.944,111.023
-0.075,0.684,1.811,3.967,24.658,105.835
-0.081,0.745,1.787,9.766,32.654,99.976
-0.079,0.787,1.759,13.489,40.955,94.421
-0.073,0.800,1.722,16.907,49.866,88.440
-0.066,0.799,1.667,20.630,59.082,81.116
-0.056,0.796,1.603,24.719,67.749,72.510
-0.050,0.776,1.521,26.794,75.989,63.416
-0.036,0.756,1.433,25.757,83.496,54.077
-0.016,0.736,1.338,22.278,90.759,44.983

0.016,0.712,1.269,17.090,98.206,36.255
0.049,0.672,1.203,11.963,104.370,27.466
0.094,0.641,1.144,6.714,108.459,18.494
0.131,0.625,1.072,0.366,109.802,9.827
0.169,0.640,1.019,-6.531,108.459,1.709
0.207,0.663,1.012,-12.573,104.309,-5.127
0.231,0.664,1.017,-14.648,96.313,-12.451
0.229,0.674,0.992,-12.878,84.900,-20.935
0.201,0.664,0.906,-9.644,73.242,-30.029
0.171,0.639,0.816,-8.423,64.880,-37.964
0.157,0.604,0.776,-9.766,61.462,-44.800
-0.237,0.538,1.898,-26.794,6.592,116.882
-0.203,0.605,1.875,-22.095,16.663,122.253
-0.148,0.674,1.858,-18.433,27.771,124.268
-0.102,0.714,1.854,-13.916,38.086,121.887
-0.077,0.766,1.847,-9.521,46.631,115.356
-0.070,0.818,1.824,-7.141,53.223,106.445
-0.062,0.886,1.782,-5.676,59.692,96.741
-0.042,0.909,1.743,-3.174,66.650,87.402
-0.021,0.922,1.691,2.014,74.280,78.125
-0.014,0.889,1.603,7.874,80.811,68.665
-0.006,0.830,1.448,10.742,87.830,59.875
0.027,0.851,1.393,10.986,97.168,51.147
0.064,0.774,1.315,10.925,106.750,43.945
0.098,0.796,1.292,12.634,113.403,34.851
0.123,0.771,1.223,13.672,113.892,26.978
0.141,0.772,1.138,12.878,109.253,19.897
0.163,0.718,1.075,11.719,103.271,14.160
0.180,0.684,1.019,11.597,96.802,7.324
0.189,0.655,0.960,11.292,90.393,-0.061
0.195,0.651,0.904,10.132,84.961,-6.348
0.194,0.642,0.859,9.949,81.238,-11.902
0.189,0.624,0.816,10.559,77.637,-17.212
0.187,0.603,0.770,10.559,74.524,-21.729
0.187,0.586,0.735,9.277,70.801,-26.428
0.192,0.594,0.716,8.118,65.857,-31.250
0.187,0.588,0.690,7.935,59.692,-35.339
0.176,0.557,0.657,8.301,53.284,-38.452
0.185,0.528,0.622,9.033,46.875,-42.297
0.175,0.500,0.567,9.766,41.382,-46.997
0.160,0.443,0.552,10.010,36.743,-51.636
0.146,0.419,0.518,9.277,32.471,-57.251
0.117,0.410,0.454,6.165,28.931,-61.829
0.108,0.385,0.404,1.587,27.161,-64.209
0.117,0.362,0.377,-3.479,26.794,-66.467
0.117,0.342,0.372,-7.690,26.733,-68.848
0.110,0.331,0.378,-10.315,24.841,-71.777
0.106,0.315,0.380,-11.597,20.996,-75.134
0.099,0.285,0.369,-12.329,15.137,-77.698
0.084,0.265,0.356,-13.367,8.911,-79.773
0.074,0.259,0.342,-14.832,2.991,-81.360
0.069,0.236,0.337,-15.625,-1.282,-81.177
0.069,0.207,0.341,-16.479,-4.456,-80.078
0.068,0.166,0.348,-16.846,-7.751,-79.224
0.074,0.132,0.345,-17.334,-10.925,-78.918
0.074,0.097,0.339,-18.860,-14.465,-79.163
0.070,0.077,0.349,-21.545,-17.395,-80.017
0.054,0.071,0.385,-23.865,-19.104,-81.238
0.021,0.055,0.411,-23.743,-21.179,-82.031
-0.016,0.031,0.423,-22.339,-23.743,-81.848
-0.040,-0.005,0.424,-21.545,-25.452,-80.872
-0.065,-0.027,0.418,-22.400,-27.161,-78.247
-0.076,-0.054,0.406,-23.987,-27.649,-73.975
-0.058,-0.099,0.417,-24.353,-27.527,-68.848
-0.034,-0.148,0.442,-24.048,-28.137,-63.293
-0.012,-0.193,0.466,-24.170,-30.579,-58.228
0.009,-0.232,0.485,-25.024,-34.485,-53.162
0.026,-0.257,0.496,-26.367,-39.734,-48.889
0.044,-0.260,0.512,-28.809,-44.861,-44.800
0.067,-0.258,0.539,-30.884,-49.622,-40.894
0.083,-0.252,0.573,-31.921,-53.528,-36.926
0.084,-0.233,0.609,-31.189,-56.335,-32.959
0.101,-0.254,0.629,-29.053,-59.143,-28.076
0.119,-0.268,0.663,-27.527,-61.829,-23.437
0.112,-0.247,0.719,-27.649,-63.538,-20.020
0.107,-0.228,0.768,-27.405,-65.918,-17.029
0.101,-0.221,0.814,-23.865,-68.542,-14.221
0.078,-0.222,0.839,-19.226,-71.838,-11.902
0.054,-0.239,0.867,-14.893,-75.317,-9.338
0.026,-0.278,0.906,-11.414,-78.064,-7.263
-0.008,-0.316,0.938,-9.521,-79.651,-5.798
-0.049,-0.338,0.976,-8.240,-79.895,-4.578
-0.075,-0.345,1.018,-6.592,-78.247,-2.625
-0.085,-0.359,1.066,-3.967,-75.378,1.892
-0.091,-0.375,1.111,-0.427,-72.388,8.301
-0.075,-0.404,1.168,3.662,-70.190,15.442
-0.056,-0.450,1.230,8.179,-69.397,22.400
-0.036,-0.477,1.278,11.780,-71.045,28.564
-0.018,-0.505,1.341,14.832,-73.669,33.875
-0.001,-0.509,1.398,17.029,-76.843,38.513
-0.023,-0.506,1.417,18.616,-79.712,43.579
-0.028,-0.485,1.463,19.714,-79.956,48.584
-0.034,-0.463,1.494,18.738,-78.613,55.237
-0.042,-0.412,1.570,16.724,-76.416,62.927
-0.044,-0.368,1.624,14.648,-73.853,70.557
-0.049,-0.329,1.660,13.367,-70.984,77.148
-0.053,-0.278,1.690,11.169,-66.162,82.458
-0.059,-0.215,1.757,8.850,-59.021,86.670
-0.065,-0.135,1.851,7.019,-52.063,89.905
-0.072,-0.053,1.943,6.165,-46.692,92.407
-0.084,0.025,2.011,6.592,-42.725,94.604
-0.102,0.097,2.036,9.277,-38.025,96.680
-0.127,0.156,2.039,12.146,-32.471,97.900
-0.149,0.198,2.029,13.794,-24.414,98.389
-0.167,0.236,2.014,14.038,-14.282,98.022
-0.180,0.273,1.995,13.672,-2.625,96.680
-0.187,0.321,1.970,13.977,10.803,94.299
-0.187,0.350,1.936,14.404,25.208,91.736
-0.178,0.358,1.896,15.503,38.635,88.623
-0.171,0.373,1.844,15.747,50.781,84.595
-0.166,0.401,1.799,15.076,61.218,80.261
-0.149,0.432,1.745,14.587,69.214,76.477
-0.119,0.441,1.681,14.648,76.172,73.303
-0.082,0.445,1.628,14.832,82.642,70.190
-0.041,0.453,1.565,15.991,87.769,66.284
-0.010,0.468,1.491,18.433,92.407,62.012
0.024,0.444,1.424,20.813,95.581,58.044
0.052,0.443,1.360,22.339,96.802,53.833
0.072,0.421,1.292,21.851,95.825,49.072
0.096,0.414,1.227,19.958,93.750,43.457
0.122,0.410,1.156,17.700,91.431,36.743

0.142,0.411,1.093,14.893,90.210,28.625
0.151,0.420,1.036,12.695,89.966,19.409
0.157,0.436,0.978,10.498,89.478,9.888
0.161,0.464,0.939,7.019,89.478,1.526
0.158,0.483,0.924,4.883,88.196,-5.127
0.154,0.500,0.898,4.700,85.083,-11.536
0.148,0.499,0.861,5.066,80.566,-16.479
0.154,0.497,0.807,5.249,75.684,-20.325
0.154,0.472,0.742,4.272,71.106,-23.682
-0.158,0.432,2.001,4.272,24.597,109.314
-0.144,0.481,1.978,6.897,32.593,102.661
-0.141,0.523,1.941,8.118,39.673,95.642
-0.130,0.549,1.889,9.460,46.753,88.623
-0.126,0.584,1.810,11.658,54.810,81.970
-0.128,0.600,1.754,13.794,64.514,76.172
-0.129,0.608,1.704,14.893,73.730,71.655
-0.122,0.612,1.665,16.846,80.994,67.444
-0.115,0.632,1.599,19.592,86.182,62.927
-0.090,0.620,1.538,22.705,89.783,58.533
-0.056,0.583,1.476,26.855,92.834,54.199
-0.029,0.583,1.387,29.419,95.459,47.791
-0.008,0.586,1.290,29.175,96.741,40.955
0.019,0.577,1.222,26.550,98.022,34.058
0.054,0.587,1.171,23.376,97.412,26.489
0.081,0.614,1.130,22.583,95.398,18.311
0.088,0.611,1.090,25.024,92.529,10.010
0.086,0.601,1.040,28.870,88.989,2.197
0.075,0.604,0.986,31.982,84.961,-4.395
0.064,0.598,0.924,33.264,81.421,-9.155
0.059,0.568,0.861,33.691,78.674,-13.123
0.054,0.534,0.805,32.043,76.904,-17.212
0.053,0.539,0.754,28.259,75.623,-21.912
0.055,0.550,0.719,23.560,75.012,-26.306
0.057,0.535,0.700,19.592,74.890,-29.236
0.063,0.519,0.667,16.663,74.280,-32.104
0.073,0.512,0.619,12.695,72.937,-35.400
0.089,0.513,0.608,7.080,71.472,-38.269
0.098,0.511,0.608,3.174,68.359,-41.748
0.102,0.491,0.573,2.502,63.354,-46.326
0.099,0.453,0.537,2.930,57.495,-51.331
0.091,0.439,0.491,1.343,51.636,-57.068
0.078,0.435,0.451,-0.854,46.631,-62.683
0.042,0.420,0.437,-2.502,42.603,-67.749
0.039,0.403,0.414,-1.038,38.818,-72.327
0.045,0.375,0.404,-2.563,35.095,-75.928
0.042,0.333,0.394,-4.150,30.029,-78.918
0.035,0.281,0.381,-5.554,24.841,-82.642
0.021,0.243,0.363,-7.812,18.799,-86.975
0.023,0.199,0.327,-9.033,13.733,-90.088
0.028,0.145,0.293,-13.123,9.827,-92.285
0.024,0.103,0.286,-17.822,6.836,-94.788
0.027,0.079,0.297,-21.362,4.211,-96.924
0.028,0.050,0.309,-25.879,0.977,-97.839
0.025,0.022,0.307,-30.945,-4.089,-98.511
0.030,0.002,0.308,-35.400,-8.850,-98.328
0.027,-0.020,0.322,-39.978,-12.939,-97.351
0.012,-0.046,0.337,-43.579,-16.479,-95.581
-0.002,-0.069,0.338,-45.776,-18.555,-93.445
-0.008,-0.106,0.340,-45.776,-19.226,-90.637
-0.006,-0.140,0.358,-45.532,-19.958,-87.708
-0.006,-0.185,0.375,-44.128,-21.179,-84.595
-0.013,-0.255,0.390,-42.175,-24.414,-81.604
-0.013,-0.317,0.378,-42.114,-29.907,-78.918
-0.027,-0.366,0.380,-46.326,-36.133,-76.294
-0.046,-0.394,0.416,-51.575,-43.518,-72.998
-0.061,-0.411,0.468,-56.580,-51.147,-69.336
-0.085,-0.411,0.532,-58.899,-58.167,-64.514
-0.107,-0.434,0.586,-59.265,-64.880,-57.983
-0.119,-0.466,0.619,-58.838,-69.580,-50.354
-0.133,-0.460,0.685,-58.899,-71.533,-42.847
-0.156,-0.463,0.775,-58.594,-73.608,-34.851
-0.171,-0.475,0.869,-56.580,-77.209,-26.489
-0.191,-0.478,0.926,-53.650,-81.543,-18.677
-0.207,-0.498,0.960,-49.744,-84.167,-11.414
-0.223,-0.530,0.993,-46.082,-83.679,-4.944
-0.219,-0.559,1.040,-43.518,-80.933,1.526
-0.221,-0.571,1.100,-41.321,-77.698,7.690
-0.219,-0.591,1.166,-39.795,-74.951,13.794
-0.224,-0.605,1.239,-37.415,-73.486,19.409
-0.216,-0.590,1.317,-35.156,-73.486,24.536
-0.231,-0.554,1.351,-33.386,-73.669,30.823
-0.243,-0.464,1.478,-31.616,-71.350,39.490
-0.252,-0.429,1.563,-27.771,-70.557,52.002
-0.232,-0.405,1.606,-20.508,-69.763,64.819
-0.196,-0.403,1.607,-12.695,-66.833,75.623
-0.180,-0.419,1.600,-6.226,-60.974,84.412
-0.168,-0.428,1.570,-2.075,-52.551,90.210
-0.158,-0.418,1.555,-0.427,-43.152,92.957
-0.164,-0.357,1.606,-2.197,-34.546,94.666
-0.176,-0.268,1.648,-5.127,-28.503,97.412
-0.168,-0.170,1.731,-6.348,-24.353,102.356
-0.161,-0.096,1.782,-4.761,-23.254,108.948
-0.161,-0.036,1.760,-1.038,-22.705,115.417
-0.165,0.024,1.708,2.319,-20.447,121.582
-0.170,0.085,1.666,3.906,-14.465,128.357
-0.164,0.136,1.664,3.418,-5.493,136.108
-0.145,0.227,1.682,1.587,3.845,143.005
-0.117,0.304,1.727,-0.793,12.024,148.743
-0.080,0.399,1.751,-0.671,18.127,152.222
-0.030,0.461,1.754,1.282,22.339,152.954
0.019,0.510,1.733,2.014,26.062,150.452
0.034,0.552,1.733,0.793,30.273,143.921
0.037,0.607,1.748,-0.183,34.790,133.362
0.036,0.688,1.734,-1.526,39.612,120.605
0.021,0.762,1.728,-1.526,45.471,107.666
0.015,0.801,1.724,0.854,52.551,95.215
0.019,0.807,1.729,4.883,59.753,82.275
0.008,0.877,1.706,11.292,65.735,69.458
-0.014,0.884,1.645,17.761,70.007,59.509
-0.012,0.886,1.579,23.376,74.402,52.795
0.001,0.866,1.487,28.198,79.346,47.058
0.022,0.750,1.394,30.945,86.060,41.870
0.046,0.714,1.335,31.921,93.628,33.997
0.063,0.728,1.270,30.212,99.487,24.048
0.079,0.717,1.213,26.428,102.905,15.442
0.103,0.698,1.186,22.705,104.553,7.446
0.125,0.688,1.154,19.348,103.760,-0.488
0.135,0.669,1.104,18.066,100.281,-7.629
0.146,0.623,1.030,18.860,96.924,-14.709
0.154,0.606,0.966,18.555,94.604,-21.729
0.156,0.587,0.902,17.334,93.567,-27.954

0.158,0.581,0.853,17.334,93.079,-32.959
0.174,0.596,0.812,16.968,92.773,-36.743
0.199,0.601,0.754,16.418,92.468,-38.635
0.233,0.605,0.699,16.479,91.736,-39.307
0.262,0.569,0.633,16.296,89.172,-39.856
0.286,0.543,0.574,14.221,84.717,-41.443
0.288,0.517,0.539,10.681,78.735,-45.349
-0.127,0.670,1.742,-1.099,42.175,118.469
-0.102,0.707,1.737,-0.061,52.246,117.065
-0.066,0.757,1.724,1.587,60.669,113.342
-0.040,0.821,1.709,3.479,66.956,106.995
-0.022,0.855,1.685,5.066,71.655,99.854
-0.004,0.883,1.648,7.446,75.989,90.942
-0.000,0.896,1.596,10.376,80.688,80.688
-0.000,0.896,1.530,13.062,86.060,69.702
0.005,0.881,1.470,15.259,91.492,58.411
0.008,0.874,1.410,15.808,97.229,47.485
0.010,0.883,1.333,14.465,102.783,38.147
0.024,0.869,1.251,13.306,108.215,30.701
0.051,0.846,1.188,13.489,114.197,24.048
0.076,0.770,1.094,13.550,119.385,17.395
0.111,0.753,1.064,12.878,122.803,9.277
0.118,0.742,0.970,11.902,123.413,0.610
0.136,0.714,0.892,10.742,121.704,-5.737
0.167,0.665,0.832,8.911,118.958,-11.780
0.189,0.634,0.786,6.531,114.868,-18.494
0.207,0.610,0.743,3.906,109.131,-25.574
0.223,0.593,0.705,2.014,101.074,-32.654
0.232,0.585,0.664,0.183,92.041,-38.696
0.240,0.601,0.635,-1.648,82.947,-43.518
0.239,0.595,0.573,-2.747,74.829,-46.631
0.245,0.587,0.526,-2.808,68.726,-48.767
0.253,0.564,0.481,-3.418,63.782,-50.903
0.262,0.540,0.463,-5.249,59.570,-54.443
0.251,0.516,0.422,-7.202,55.054,-59.570
0.243,0.491,0.415,-9.094,50.171,-64.941
0.233,0.495,0.395,-10.925,44.800,-70.801
0.211,0.483,0.356,-12.207,39.429,-75.317
0.196,0.435,0.316,-13.489,34.424,-78.857
0.187,0.394,0.296,-15.198,30.029,-82.703
0.164,0.360,0.279,-17.761,25.635,-86.304
0.132,0.345,0.263,-20.569,20.996,-89.050
0.102,0.329,0.253,-23.315,16.785,-90.332
0.079,0.314,0.265,-24.841,12.878,-89.966
0.062,0.288,0.283,-25.635,7.568,-88.867
0.043,0.269,0.282,-26.245,1.709,-87.463
0.023,0.250,0.272,-25.391,-4.089,-85.876
0.019,0.228,0.262,-24.841,-8.545,-83.984
0.013,0.192,0.250,-24.231,-11.963,-81.726
0.007,0.161,0.234,-24.475,-15.137,-79.712
0.013,0.136,0.225,-26.855,-18.860,-77.759
0.017,0.095,0.216,-30.151,-22.522,-75.562
0.021,0.072,0.216,-34.119,-26.184,-74.341
0.029,0.052,0.229,-37.903,-30.823,-73.608
0.038,0.010,0.253,-40.405,-36.560,-73.181
0.036,-0.033,0.265,-42.725,-43.945,-73.669
0.030,-0.056,0.260,-46.570,-52.795,-74.524
0.017,-0.068,0.264,-51.514,-61.340,-74.524
0.002,-0.068,0.302,-55.481,-68.665,-73.181
-0.011,-0.092,0.325,-58.228,-74.585,-70.862
-0.032,-0.129,0.359,-59.937,-79.590,-68.420
-0.035,-0.181,0.411,-62.927,-83.862,-65.918
-0.040,-0.211,0.487,-66.956,-87.769,-64.209
-0.065,-0.211,0.575,-70.740,-90.881,-63.171
-0.086,-0.221,0.689,-72.876,-94.910,-61.157
-0.102,-0.242,0.804,-71.350,-101.196,-58.228
-0.155,-0.257,0.889,-67.444,-109.131,-55.115
-0.229,-0.261,0.947,-64.636,-116.455,-51.025
-0.287,-0.247,1.026,-63.049,-120.972,-44.373
-0.303,-0.236,1.127,-61.035,-121.948,-34.363
-0.310,-0.224,1.207,-57.983,-119.629,-21.545
-0.302,-0.225,1.266,-52.490,-113.892,-7.935
-0.255,-0.257,1.329,-43.335,-105.042,3.418
-0.203,-0.310,1.408,-32.898,-96.863,12.329
-0.193,-0.386,1.410,-24.109,-91.919,17.822
-0.188,-0.365,1.431,-19.653,-88.318,20.508
-0.190,-0.367,1.475,-18.799,-86.121,24.536
-0.180,-0.372,1.520,-18.066,-83.801,29.297
-0.174,-0.342,1.537,-16.602,-80.139,34.119
-0.161,-0.312,1.577,-14.465,-74.585,40.405
-0.141,-0.298,1.602,-11.353,-67.078,48.462
-0.118,-0.294,1.595,-7.019,-59.082,57.434
-0.101,-0.239,1.687,-2.686,-50.781,65.796
-0.083,-0.203,1.735,0.916,-46.082,74.158
-0.062,-0.167,1.729,4.578,-45.532,82.275
-0.047,-0.116,1.730,8.362,-44.373,88.440
-0.046,-0.074,1.735,10.742,-40.466,93.628
-0.039,-0.050,1.751,12.146,-33.936,97.778
-0.032,-0.025,1.753,13.184,-26.245,99.548
-0.048,0.031,1.745,13.733,-18.066,99.792
-0.059,0.066,1.743,13.367,-9.705,100.891
-0.065,0.105,1.751,12.634,-2.563,102.112
-0.070,0.150,1.753,11.475,4.028,102.783
-0.078,0.221,1.755,10.315,9.827,103.149
-0.085,0.287,1.748,9.827,15.564,104.553
-0.087,0.372,1.744,10.559,21.912,106.079
-0.081,0.453,1.735,11.963,29.114,108.276
-0.068,0.513,1.723,14.465,36.316,110.229
-0.042,0.551,1.700,17.761,44.067,110.962
-0.024,0.603,1.680,21.423,50.842,109.131
-0.017,0.636,1.659,23.621,56.763,105.469
-0.005,0.668,1.638,24.475,62.195,100.403
0.017,0.720,1.628,23.743,67.017,93.506
0.028,0.766,1.600,24.719,71.228,85.083
0.027,0.787,1.576,28.564,76.538,76.050
0.029,0.818,1.546,33.203,82.092,66.223
0.027,0.838,1.505,37.231,86.914,57.312
0.032,0.835,1.447,39.917,91.919,49.927
0.048,0.825,1.377,41.138,97.107,42.786
0.061,0.830,1.301,40.833,102.478,35.889
0.070,0.818,1.223,39.063,108.276,29.968
0.089,0.809,1.155,35.950,114.258,24.597
0.111,0.812,1.107,31.677,119.446,19.348
0.132,0.816,1.061,28.259,123.169,14.404
0.159,0.805,1.002,26.855,124.268,9.766
0.193,0.773,0.940,26.917,123.596,4.944
0.222,0.746,0.873,25.757,120.850,-1.282
0.248,0.734,0.811,22.644,116.150,-8.179
0.275,0.713,0.763,19.531,110.046,-15.991
0.288,0.673,0.719,16.846,103.271,-24.353
0.290,0.661,0.686,14.954,94.604,-33.447

0.279,0.635,0.644,13.733,85.510,-42.053
0.268,0.595,0.601,12.268,76.599,-49.316
0.252,0.572,0.553,10.315,68.359,-55.786
0.240,0.557,0.523,8.057,61.890,-60.364
0.221,0.521,0.480,5.554,57.007,-62.805
0.149,0.811,1.639,-17.944,74.036,96.008
0.178,0.880,1.629,-16.418,76.660,89.661
0.185,0.958,1.590,-12.939,79.163,80.994
0.202,0.995,1.531,-7.629,82.275,72.449
0.222,1.000,1.472,-2.197,86.426,63.232
0.227,0.987,1.396,2.686,91.187,52.734
0.222,1.000,1.321,6.958,94.910,41.748
0.217,0.988,1.241,9.888,97.778,32.410
0.216,0.976,1.159,11.230,100.647,24.170
0.222,0.904,1.066,11.902,103.760,15.930
0.232,0.878,1.038,10.986,106.079,6.897
0.232,0.911,0.991,7.629,105.591,-2.136
0.226,0.889,0.951,5.310,101.929,-8.484
0.212,0.895,0.920,5.005,96.191,-15.076
0.188,0.881,0.879,7.324,89.417,-20.935
0.168,0.844,0.817,11.536,82.581,-26.062
0.153,0.801,0.742,15.076,76.782,-31.067
0.146,0.787,0.671,16.602,73.547,-36.133
0.142,0.755,0.594,16.296,71.411,-41.016
0.153,0.727,0.564,14.954,70.923,-45.776
0.154,0.680,0.544,12.756,69.214,-51.392
0.149,0.659,0.511,10.803,65.369,-57.861
0.144,0.627,0.477,8.728,60.242,-63.843
0.146,0.597,0.427,6.714,54.749,-69.458
0.145,0.574,0.400,5.188,49.744,-74.341
0.147,0.545,0.393,4.761,44.800,-78.674
0.147,0.504,0.362,5.066,39.063,-82.214
0.141,0.455,0.291,5.127,33.325,-85.327
0.145,0.386,0.265,3.906,28.870,-87.036
0.137,0.371,0.249,0.427,24.719,-88.440
0.121,0.374,0.243,-5.066,19.592,-88.379
0.119,0.363,0.265,-9.155,14.282,-85.876
0.128,0.358,0.290,-10.010,8.606,-82.886
0.128,0.328,0.303,-7.996,2.197,-80.200
0.129,0.280,0.294,-4.272,-4.089,-78.674
0.132,0.217,0.262,-1.709,-10.376,-78.796
0.144,0.157,0.230,-1.770,-16.235,-81.116
0.144,0.105,0.224,-5.676,-21.729,-84.595
0.145,0.085,0.237,-11.597,-27.527,-88.318
0.148,0.082,0.262,-17.212,-33.081,-91.431
0.140,0.063,0.288,-20.874,-38.086,-92.529
0.118,0.036,0.303,-23.071,-42.786,-92.285
0.099,0.008,0.320,-23.560,-46.692,-91.431
0.084,-0.021,0.339,-23.499,-49.866,-90.027
0.071,-0.059,0.364,-22.949,-52.979,-88.013
0.061,-0.100,0.394,-22.278,-56.824,-85.632
0.048,-0.147,0.418,-22.095,-61.951,-83.496
0.027,-0.200,0.427,-22.461,-68.481,-81.848
-0.004,-0.234,0.440,-25.696,-74.890,-79.834
-0.036,-0.260,0.464,-32.471,-80.627,-76.599
-0.045,-0.284,0.521,-40.161,-85.083,-72.510
-0.074,-0.260,0.615,-46.021,-88.196,-68.054
-0.102,-0.301,0.752,-47.913,-91.370,-62.561
-0.136,-0.253,0.782,-44.495,-95.337,-58.167
-0.191,-0.254,0.811,-39.307,-97.839,-51.331
-0.225,-0.265,0.855,-35.095,-97.229,-41.016
-0.211,-0.295,0.928,-31.250,-94.788,-30.151
-0.186,-0.343,0.998,-26.794,-92.407,-19.958
-0.175,-0.367,1.026,-23.193,-90.942,-11.719
-0.163,-0.399,1.034,-19.897,-89.294,-5.432
-0.146,-0.460,1.062,-17.944,-86.304,0.183
-0.156,-0.441,1.119,-18.799,-83.496,4.883
-0.169,-0.428,1.182,-21.667,-82.214,10.376
-0.157,-0.423,1.260,-22.156,-82.458,16.724
-0.144,-0.419,1.319,-19.165,-83.374,22.400
-0.141,-0.417,1.349,-15.259,-83.313,28.442
-0.129,-0.411,1.392,-11.292,-80.811,35.339
-0.115,-0.410,1.397,-8.789,-75.806,42.480
-0.122,-0.405,1.413,-7.202,-68.481,49.438
-0.091,-0.372,1.517,-6.348,-59.326,56.702
-0.067,-0.385,1.589,-5.432,-54.321,64.148
-0.036,-0.348,1.646,-1.892,-53.894,69.153
-0.032,-0.352,1.607,3.296,-56.091,73.425
-0.057,-0.379,1.528,8.118,-56.030,77.393
-0.089,-0.378,1.464,6.653,-51.208,80.994
-0.115,-0.348,1.446,-1.526,-41.992,86.121
-0.113,-0.266,1.499,-14.709,-32.227,92.957
-0.098,-0.138,1.577,-28.259,-24.841,101.196
-0.081,0.003,1.650,-37.476,-20.386,109.497
-0.059,0.144,1.723,-42.419,-17.883,116.760
-0.035,0.271,1.771,-45.410,-16.968,121.460
-0.011,0.395,1.808,-47.913,-15.564,123.047
0.001,0.520,1.825,-50.049,-12.329,121.216
0.008,0.645,1.826,-50.110,-5.310,116.028
0.020,0.758,1.831,-47.119,6.470,108.887
0.020,0.867,1.841,-42.236,20.874,101.318
0.030,0.947,1.860,-36.560,34.973,94.727
0.046,0.993,1.856,-29.114,46.875,88.806
0.057,1.025,1.832,-21.484,55.847,82.764
0.061,1.040,1.791,-13.733,62.988,76.538
0.067,1.042,1.738,-5.188,70.190,70.190
0.070,0.996,1.673,3.113,76.904,63.721
0.076,0.978,1.615,10.559,83.374,56.824
0.078,0.972,1.540,16.846,88.440,49.927
0.084,0.930,1.465,22.766,92.407,44.006
0.090,0.877,1.395,28.137,96.130,38.025
0.086,0.836,1.325,32.227,98.755,31.799
0.071,0.801,1.231,34.058,100.220,25.818
0.068,0.776,1.148,33.508,101.501,20.142
0.078,0.698,1.067,31.311,103.760,15.015
0.089,0.677,1.001,26.306,105.713,7.324
0.086,0.681,0.944,19.287,107.544,-0.916
0.100,0.670,0.885,13.672,109.314,-7.690
0.128,0.667,0.843,9.583,111.633,-14.282
0.148,0.672,0.804,7.019,113.708,-20.386
0.178,0.684,0.752,4.822,113.953,-25.757
0.209,0.703,0.718,4.089,112.183,-30.457
0.257,0.719,0.695,4.333,108.276,-35.278
0.296,0.712,0.661,6.042,101.318,-40.649
0.314,0.689,0.623,9.949,91.614,-47.363
0.318,0.655,0.557,14.221,80.994,-54.749
0.317,0.626,0.489,16.296,71.472,-62.195
0.299,0.583,0.452,15.808,63.904,-68.726
0.270,0.566,0.398,13.489,57.129,-74.036
0.249,0.559,0.370,10.559,51.575,-77.454
0.227,0.521,0.364,7.690,47.974,-78.735

0.211,0.494,0.377,5.798,44.922,-79.163
0.191,0.504,0.365,4.944,40.222,-78.735
0.171,0.480,0.332,5.127,34.363,-76.355
0.010,0.650,1.878,4.456,34.973,120.605
0.027,0.671,1.850,7.446,43.030,117.188
0.042,0.712,1.791,9.583,51.331,110.535
0.049,0.742,1.736,11.108,59.448,102.295
0.058,0.765,1.673,11.108,68.237,93.262
0.074,0.776,1.615,10.620,77.515,83.496
0.080,0.781,1.558,9.338,86.731,73.425
0.084,0.792,1.499,8.240,95.398,63.232
0.096,0.817,1.437,6.592,103.027,53.162
0.115,0.828,1.359,5.127,109.436,44.434
0.123,0.838,1.282,4.456,114.319,37.109
0.132,0.846,1.208,3.601,118.042,30.762
0.148,0.859,1.134,3.052,120.728,25.452
0.171,0.835,1.059,4.578,122.009,20.874
0.198,0.793,0.989,8.057,122.314,15.747
0.228,0.762,0.903,10.315,121.277,8.972
0.250,0.734,0.809,10.681,119.324,1.160
0.278,0.701,0.720,9.460,117.188,-6.775
0.306,0.671,0.656,6.836,114.929,-15.625
0.323,0.645,0.615,4.211,111.572,-25.452
0.324,0.616,0.578,2.441,106.506,-35.950
0.319,0.607,0.537,1.282,99.487,-46.204
0.305,0.597,0.498,0.061,91.125,-54.260
0.292,0.572,0.466,-1.892,82.581,-59.448
0.279,0.538,0.444,-3.418,73.669,-63.354
0.267,0.521,0.423,-4.150,64.575,-66.467
0.244,0.497,0.406,-4.395,55.420,-68.481
0.218,0.468,0.386,-5.066,47.119,-69.397
0.198,0.452,0.358,-6.104,39.429,-69.824
0.178,0.437,0.338,-7.080,32.837,-69.580
0.166,0.411,0.330,-8.240,27.161,-68.726
0.159,0.384,0.318,-9.644,22.644,-68.542
0.156,0.368,0.300,-11.597,19.592,-68.848
0.155,0.353,0.284,-13.184,17.578,-68.848
0.160,0.331,0.286,-14.648,15.442,-68.726
0.172,0.299,0.294,-17.456,12.024,-68.909
0.180,0.262,0.303,-21.484,5.432,-70.557
0.175,0.259,0.307,-25.391,-2.319,-73.608
0.163,0.249,0.315,-28.320,-10.193,-76.721
0.151,0.224,0.331,-30.151,-17.700,-79.712
0.138,0.188,0.341,-30.640,-24.841,-82.642
0.114,0.153,0.345,-30.701,-30.823,-85.693
0.076,0.126,0.342,-31.006,-35.583,-88.318
0.039,0.092,0.335,-31.494,-37.842,-89.355
0.008,0.047,0.327,-32.837,-38.025,-88.562
-0.014,0.018,0.326,-35.034,-36.682,-86.121
-0.026,0.010,0.335,-36.438,-34.790,-82.031
-0.026,-0.022,0.361,-35.400,-34.241,-76.843
-0.006,-0.089,0.395,-32.715,-36.499,-71.899
0.009,-0.159,0.413,-30.945,-43.213,-68.542
0.014,-0.221,0.411,-31.006,-52.795,-66.895
0.012,-0.272,0.393,-34.058,-63.477,-66.528
-0.002,-0.296,0.433,-40.466,-73.120,-65.979
-0.031,-0.314,0.465,-48.767,-80.872,-64.575
-0.062,-0.333,0.499,-54.565,-85.876,-62.439
-0.116,-0.289,0.564,-58.716,-86.670,-58.655
-0.162,-0.251,0.642,-62.256,-85.083,-50.720
-0.171,-0.222,0.723,-62.561,-82.947,-39.185
-0.170,-0.204,0.816,-58.472,-81.604,-26.489
-0.155,-0.208,0.888,-51.941,-81.970,-13.550
-0.107,-0.230,0.932,-44.800,-84.167,-2.502
-0.053,-0.256,0.970,-38.574,-86.487,6.653
-0.020,-0.283,1.011,-33.325,-87.891,13.489
-0.012,-0.301,1.041,-29.663,-88.196,17.639
-0.023,-0.303,1.076,-26.917,-87.891,19.897
-0.040,-0.295,1.105,-24.780,-86.914,21.851
-0.043,-0.287,1.149,-22.705,-85.205,24.780
-0.062,-0.303,1.166,-20.874,-82.947,28.992
-0.070,-0.247,1.265,-20.081,-79.895,34.607
-0.072,-0.231,1.341,-19.165,-79.163,44.189
-0.061,-0.242,1.404,-15.442,-79.346,55.603
-0.045,-0.224,1.438,-9.338,-79.346,65.247
-0.039,-0.217,1.480,-3.113,-77.576,72.998
-0.032,-0.220,1.500,2.441,-74.951,79.041
-0.020,-0.249,1.502,7.202,-71.472,81.848
-0.008,-0.236,1.584,10.925,-67.139,81.909
-0.005,-0.200,1.648,12.512,-63.599,81.665
-0.020,-0.147,1.654,13.733,-63.599,83.801
-0.039,-0.071,1.666,15.137,-62.927,87.891
-0.057,-0.036,1.708,15.747,-59.082,94.116
-0.064,-0.018,1.759,15.503,-52.795,100.891
-0.064,-0.001,1.797,15.991,-45.349,106.201
-0.057,0.020,1.805,17.456,-37.354,109.009
-0.055,0.058,1.802,17.883,-29.175,110.107
-0.067,0.114,1.812,15.869,-20.142,110.840
-0.075,0.177,1.838,12.451,-11.719,111.328
-0.068,0.249,1.849,8.301,-4.150,112.061
-0.062,0.322,1.849,3.540,3.357,112.549
-0.053,0.404,1.851,-0.488,12.207,111.877
-0.040,0.482,1.849,-3.418,21.667,109.680
-0.039,0.550,1.826,-3.540,32.288,106.628
-0.030,0.610,1.801,-3.052,42.908,102.966
-0.016,0.657,1.769,-3.479,53.345,99.243
0.000,0.682,1.727,-3.479,63.049,94.299
0.003,0.708,1.677,-1.831,72.205,87.769
0.015,0.732,1.652,-1.038,80.383,80.444
0.028,0.753,1.614,-1.160,87.219,73.425
0.038,0.788,1.565,0.610,92.957,66.223
0.041,0.816,1.513,4.822,98.572,59.265
0.043,0.825,1.464,11.047,103.455,53.223
0.052,0.807,1.401,17.761,106.506,48.462
0.060,0.789,1.313,22.522,108.276,43.884
0.063,0.729,1.199,24.780,109.497,39.124
0.071,0.711,1.109,24.048,111.511,33.020
0.082,0.658,0.999,18.860,115.112,26.367
0.123,0.636,0.973,10.925,119.507,18.860
0.165,0.652,0.964,3.967,120.667,10.010
0.178,0.690,0.898,0.366,119.141,0.671
0.187,0.706,0.829,-0.671,116.882,-5.615
0.209,0.710,0.774,-0.366,114.441,-10.010
0.239,0.708,0.732,0.122,111.694,-13.855
0.257,0.701,0.697,1.770,107.178,-18.677
0.269,0.681,0.656,4.089,99.854,-24.597
0.283,0.639,0.633,6.165,89.905,-31.677
0.273,0.596,0.605,7.507,78.491,-39.612
0.251,0.568,0.549,7.507,66.650,-48.157
0.227,0.543,0.508,6.409,56.274,-55.664
0.199,0.522,0.475,4.700,48.828,-61.462

0.182,0.510,0.479,3.052,43.457,-64.941
-0.001,0.792,1.806,1.160,46.509,77.515
-0.002,0.821,1.745,8.667,54.932,75.745
0.026,0.817,1.673,13.550,64.087,73.547
0.070,0.806,1.603,14.465,75.073,69.946
0.107,0.798,1.535,13.367,86.243,63.293
0.131,0.793,1.473,12.146,96.130,54.016
0.153,0.792,1.414,11.108,104.065,43.762
0.174,0.787,1.357,10.193,109.192,33.936
0.190,0.743,1.307,10.254,110.291,24.597
0.194,0.748,1.266,12.329,108.032,14.954
0.190,0.694,1.174,14.771,102.966,6.958
0.186,0.701,1.077,17.029,97.717,0.427
0.180,0.634,0.968,18.372,93.445,-3.723
0.185,0.553,0.881,18.738,90.881,-7.446
0.187,0.521,0.813,16.479,89.172,-12.451
0.188,0.531,0.770,11.658,87.463,-17.151
0.187,0.543,0.740,6.897,84.717,-20.264
0.202,0.526,0.713,4.211,80.933,-22.705
0.221,0.497,0.677,2.869,75.745,-25.818
0.237,0.465,0.607,1.282,69.580,-30.762
0.247,0.451,0.546,-1.160,63.660,-37.109
0.249,0.425,0.505,-4.639,58.838,-43.823
0.243,0.439,0.475,-9.155,53.955,-51.086
0.224,0.437,0.431,-13.428,49.255,-57.983
0.213,0.376,0.442,-16.663,45.593,-63.232
0.205,0.372,0.430,-19.470,40.344,-70.557
0.182,0.381,0.382,-22.705,33.997,-77.026
0.152,0.361,0.336,-25.391,29.663,-80.688
0.138,0.340,0.317,-27.588,27.588,-82.397
0.129,0.330,0.316,-29.541,26.184,-82.703
0.116,0.317,0.326,-31.677,23.987,-81.909
0.105,0.291,0.341,-32.898,19.165,-80.688
0.099,0.275,0.348,-33.936,12.512,-80.261
0.092,0.271,0.339,-33.997,5.066,-80.078
0.093,0.231,0.328,-32.898,-1.892,-79.956
0.095,0.164,0.321,-31.494,-8.057,-80.994
0.086,0.110,0.294,-31.128,-13.916,-83.618
0.065,0.088,0.252,-32.837,-18.677,-86.731
0.044,0.063,0.234,-36.804,-20.752,-89.050
0.023,0.036,0.241,-41.382,-20.813,-90.149
0.007,0.023,0.267,-45.105,-20.569,-90.332
-0.006,0.017,0.296,-46.814,-21.790,-89.966
-0.012,0.007,0.343,-46.265,-24.719,-88.867
-0.021,-0.037,0.387,-42.480,-31.433,-88.196
-0.046,-0.099,0.410,-37.048,-40.710,-88.257
-0.089,-0.179,0.410,-32.227,-51.025,-89.417
-0.137,-0.260,0.388,-29.663,-59.631,-91.370
-0.195,-0.312,0.369,-29.968,-64.331,-92.834
-0.243,-0.331,0.360,-33.936,-64.087,-91.431
-0.247,-0.350,0.427,-38.391,-60.486,-85.815
-0.240,-0.379,0.495,-42.053,-55.420,-75.989
-0.205,-0.367,0.651,-44.800,-52.246,-63.782
-0.190,-0.316,0.774,-45.471,-56.335,-49.744
-0.171,-0.368,0.872,-40.222,-66.162,-33.630
-0.136,-0.417,0.920,-31.616,-78.613,-20.874
-0.113,-0.435,0.930,-24.780,-90.332,-12.146
-0.085,-0.478,0.936,-20.569,-97.717,-6.287
-0.056,-0.525,0.974,-18.738,-99.609,-3.601
-0.032,-0.557,1.046,-19.226,-97.656,-1.831
-0.019,-0.563,1.140,-20.569,-93.750,0.244
-0.010,-0.539,1.219,-21.179,-89.233,3.784
-0.004,-0.517,1.315,-20.813,-85.266,9.094
0.002,-0.530,1.404,-19.104,-83.191,16.541
0.013,-0.544,1.478,-14.893,-82.947,22.583
0.030,-0.535,1.540,-9.460,-83.008,27.222
0.030,-0.517,1.586,-5.737,-82.764,32.532
0.026,-0.503,1.622,-2.991,-80.505,39.246
0.030,-0.490,1.643,-1.587,-75.195,46.997
0.037,-0.425,1.711,-1.343,-66.589,55.542
0.052,-0.391,1.736,-0.671,-57.617,64.697
0.079,-0.348,1.774,0.977,-49.194,73.730
0.114,-0.306,1.766,2.319,-40.894,81.421
0.141,-0.276,1.736,3.113,-33.386,87.708
0.170,-0.281,1.740,2.075,-25.330,91.675
0.192,-0.242,1.761,-1.953,-18.799,92.957
0.184,-0.152,1.778,-7.141,-14.099,92.529
0.169,-0.082,1.794,-11.414,-10.254,92.834
0.154,0.007,1.799,-13.184,-6.287,93.384
0.137,0.069,1.787,-13.062,-1.282,95.398
0.117,0.140,1.726,-12.451,6.104,98.572
0.114,0.220,1.704,-11.719,17.456,101.929
0.117,0.257,1.731,-9.888,29.968,104.797
0.114,0.346,1.724,-8.301,39.246,106.506
0.128,0.436,1.710,-8.545,46.021,107.117
0.147,0.515,1.677,-7.996,51.270,106.567
0.171,0.580,1.648,-6.653,56.458,104.614
0.187,0.636,1.613,-4.639,61.523,100.952
0.208,0.674,1.573,-2.686,66.223,96.069
0.223,0.702,1.554,0.671,71.289,89.600
0.216,0.765,1.520,5.554,75.562,81.726
0.211,0.779,1.473,12.024,78.003,75.134
0.215,0.792,1.399,18.494,80.017,69.336
0.217,0.773,1.320,23.010,82.275,64.148
0.221,0.754,1.264,25.696,85.327,59.082
0.239,0.735,1.202,26.672,88.135,53.162
0.248,0.709,1.140,25.635,89.600,47.241
0.251,0.681,1.066,23.437,90.027,40.710
0.259,0.678,1.005,19.531,90.271,32.776
0.270,0.687,0.973,15.320,90.027,23.987
0.281,0.695,0.957,11.536,89.050,14.709
0.286,0.697,0.924,9.583,86.914,5.615
0.277,0.693,0.871,9.949,84.106,-2.686
0.273,0.672,0.823,10.986,80.750,-9.583
0.273,0.664,0.786,10.620,77.637,-15.686
0.261,0.669,0.737,9.277,74.402,-21.118
0.249,0.669,0.717,9.216,71.716,-25.513
0.246,0.642,0.715,9.888,68.665,-29.724
0.228,0.605,0.674,10.742,63.538,-34.546
0.215,0.612,0.600,10.193,57.251,-40.344
0.211,0.557,0.523,7.568,52.856,-45.471
0.217,0.485,0.502,2.075,50.598,-51.147
0.217,0.503,0.500,-4.272,48.035,-59.021
0.203,0.540,0.484,-9.155,45.227,-66.345
0.191,0.520,0.474,-10.742,42.236,-70.862
0.180,0.489,0.462,-10.803,38.940,-74.280
0.163,0.479,0.453,-11.780,35.156,-76.782
0.138,0.448,0.425,-13.245,31.494,-77.759
0.138,0.413,0.417,-14.038,27.832,-78.430
0.137,0.386,0.405,-15.869,24.536,-79.285

